{"resourceType":"Bundle","entry":[{"resource":{"resourceType":"Composition","id":"1","identifier":{"use":"official","value":"0749ea02-de7d-438c-9a8e-f52a83b256ba"},"status":"preliminary","type":{"coding":[{"system":"http://loinc.org","code":"34133-9","display":"Summarization of Episode Note"}]},"class":{"coding":[{"system":"http://hl7.org/fhir/ValueSet/doc-classcodes","code":"LP173421-7","display":"Note"}]},"subject":{"reference":"Patient/2","display":"Madigan Test, Test Madigan, MADIGAN TEST, Madigan TEST"},"date":"2020-02-10T12:11:57-05:00","author":[{"reference":"Device/3"}],"title":"Hixny Patient Summary Document","attester":[{"mode":["legal"],"time":"2020-02-10T12:11:57-05:00","party":{"reference":"Practitioner/5","display":"HealthShare Healthcare Information Xchange of NY"}}],"custodian":{"reference":"Organization/4","display":"Hixny"},"event":[{"period":{"start":"2014-03-12T14:17:00+00:00"},"detail":[{"reference":"Practitioner/8","display":"Susan Muller"},{"reference":"Practitioner/10","display":"LEO GRAFSTEIN"},{"reference":"Practitioner/12","display":"DOCTOR MEDITECH"},{"reference":"Practitioner/14","display":"Charles Everly"},{"reference":"Practitioner/16","display":"WILLIAM CARAMORE"},{"reference":"Practitioner/18","display":"DOCTOR MEDITECH"},{"reference":"Practitioner/20","display":"Timothy A Brooks"},{"reference":"Practitioner/22","display":"SIP CPOE"},{"reference":"Practitioner/24","display":"CPOE SIP TEST PROVIDER"},{"reference":"Practitioner/26","display":"Heather Madigan DO"},{"reference":"Practitioner/28","display":"DOCTOR MEDITECH"},{"reference":"Practitioner/30","display":"WILLIAM CARAMORE"},{"reference":"Practitioner/32","display":"Timothy A Brooks"},{"reference":"Practitioner/34","display":"CPOE SIP TEST PROVIDER"},{"reference":"Practitioner/36","display":"Heather Madigan DO"},{"reference":"Practitioner/38","display":"Heather Madigan DO"}]}],"section":[{"title":"Medications","code":{"coding":[{"system":"http://loinc.org","code":"10160-0","display":"History of Medication Use"}]},"mode":"snapshot","entry":[{"reference":"MedicationStatement/41","display":"HumaLOG 1unit/0.01mL {BKC}"},{"reference":"MedicationStatement/50","display":"Zithromax"},{"reference":"MedicationStatement/56","display":"Lopressor"},{"reference":"MedicationStatement/62","display":"Protonix"},{"reference":"MedicationStatement/68","display":"Morphine L.l Syringe"},{"reference":"MedicationStatement/74","display":"Fluzone Pediatric Pf 2013-2014"},{"reference":"MedicationStatement/80","display":"Lipitor(Atorvastatin Calcium) 40 MG TABLET Total Dose: 40 MG"},{"reference":"MedicationStatement/84","display":"Ventolin-HFA"},{"reference":"MedicationStatement/90","display":"Lasix(FUROSEMIDE) 20 MG TABLET Total Dose: 10 MG"},{"reference":"MedicationStatement/94","display":"NORCO 5-325 MG(Hydrocodone/Acetaminophen) 1 TAB TABLET Total Dose: 1 TAB"},{"reference":"MedicationStatement/98","display":"Lipitor(Atorvastatin Calcium) 40 MG TABLET Total Dose: 40 MG"},{"reference":"MedicationStatement/102","display":"ZESTRIL/PRINIVIL"},{"reference":"MedicationStatement/108","display":"Lovenox"},{"reference":"MedicationStatement/114","display":"Lovenox 40MG SYRINGE"},{"reference":"MedicationStatement/120","display":"Duonebs"},{"reference":"MedicationStatement/126","display":"COLACE"},{"reference":"MedicationStatement/132","display":"Lisinopril 5MG Tab(LISINOPRIL) 5 MG TABLET Total Dose: 5 MG"},{"reference":"MedicationStatement/136","display":"Prednisone/Deltasone"},{"reference":"MedicationStatement/142","display":"Lipitor"},{"reference":"MedicationStatement/148","display":"Non-Formulary Medication"},{"reference":"MedicationStatement/154","display":"Nexium Delayed-Release Capsules(Esomeprazole Magnesium Trihydr) 40 MG CAPSULE Total Dose: 40 MG"},{"reference":"MedicationStatement/158","display":"Albuterol 0.5%"},{"reference":"MedicationStatement/164","display":"Medication not documented"},{"reference":"MedicationStatement/171","display":"MAALOX 30ml UD-CUP/RULOX"},{"reference":"MedicationStatement/177","display":"Zithromax"},{"reference":"MedicationStatement/183","display":"Zofran Odt"},{"reference":"MedicationStatement/189","display":"Furosemide(FUROSEMIDE) 20 MG TABLET Total Dose: 10 MG"},{"reference":"MedicationStatement/193","display":"Lisinopril 5MG Tab(LISINOPRIL) 5 MG TABLET Total Dose: 5 MG"},{"reference":"MedicationStatement/197","display":"Milk Of Magnesia 30 Ml Udc"},{"reference":"MedicationStatement/203","display":"COLACE"},{"reference":"MedicationStatement/209","display":"Azilect(Rasagiline Mesylate) 1 MG TABLET Total Dose: 1 MG"},{"reference":"MedicationStatement/213","display":"Lasix"}]},{"title":"Vital Signs","code":{"coding":[{"system":"http://loinc.org","code":"8716-3","display":"Vital Signs"}]},"mode":"snapshot","entry":[{"reference":"Observation/219","display":"Height"},{"reference":"Observation/220","display":"Height"},{"reference":"Observation/221","display":"Weight"},{"reference":"Observation/222","display":"Weight"},{"reference":"Observation/223","display":"Weight"},{"reference":"Observation/224","display":"Weight"},{"reference":"Observation/225","display":"Height"},{"reference":"Observation/226","display":"Height"},{"reference":"Observation/227","display":"Weight"},{"reference":"Observation/228","display":"Height"},{"reference":"Observation/229","display":"Height"},{"reference":"Observation/230","display":"Weight"},{"reference":"Observation/231","display":"ED.VSIRES Respirations:"},{"reference":"Observation/232","display":"ED.HEIGHTI in"},{"reference":"Observation/233","display":"ED.VSITEMP Temperature:"},{"reference":"Observation/234","display":"BP.DIASTOLIC Diastolic Blood Pressure"},{"reference":"Observation/235","display":"BP.SYSTOLIC Systolic Blood Pressure"},{"reference":"Observation/236","display":"ED.WEIGHTL lbs"},{"reference":"Observation/237","display":"ED.VSIP Pulse:"},{"reference":"Observation/238","display":"ED.VSPO2 SpO2:"},{"reference":"Observation/239","display":"Height"},{"reference":"Observation/240","display":"Weight"}]},{"title":"Allergies, Adverse Reactions, Alerts","code":{"coding":[{"system":"http://loinc.org","code":"48765-2","display":"Allergies, Adverse Reactions, Alerts"}]},"mode":"snapshot","entry":[{"reference":"AllergyIntolerance/241","display":"Penicillins"},{"reference":"AllergyIntolerance/242","display":"Penicillins"}]},{"title":"Procedures","code":{"coding":[{"system":"http://loinc.org","code":"47519-4","display":"History of Procedures"}]},"mode":"snapshot","entry":[{"reference":"Procedure/243","display":"No Procedures"}]},{"title":"Results","code":{"coding":[{"system":"http://loinc.org","code":"30954-2","display":"Relevant diagnostic tests and/or laboratory data"}]},"mode":"snapshot","entry":[{"reference":"DiagnosticReport/244","display":"COMPREHENSIVE METABOLIC PANEL"},{"reference":"DiagnosticReport/263","display":"GLUCOSE POINT OF CARE"},{"reference":"DiagnosticReport/265","display":"GLUCOSE POINT OF CARE"},{"reference":"DiagnosticReport/267","display":"No Result Data"},{"reference":"DiagnosticReport/269","display":"CREATININE"},{"reference":"DiagnosticReport/272","display":"GLUCOSE POINT OF CARE"},{"reference":"DiagnosticReport/274","display":"TROPONIN I"}]},{"title":"Encounters","code":{"coding":[{"system":"http://loinc.org","code":"46240-8","display":"History of Encounters"}]},"mode":"snapshot","entry":[{"reference":"Encounter/276","display":"Inpatient"},{"reference":"Encounter/278","display":"IN"},{"reference":"Encounter/280","display":"Outpatient"},{"reference":"Encounter/282","display":"Emergency"},{"reference":"Encounter/284","display":"Inpatient"},{"reference":"Encounter/286","display":"Inpatient"},{"reference":"Encounter/288","display":"Inpatient"},{"reference":"Encounter/290","display":"Discharged Inpatient"},{"reference":"Encounter/294","display":"Outpatient"},{"reference":"Encounter/296","display":"Inpatient"},{"reference":"Encounter/298","display":"Non-Appointment; VANDELINDER,TERRY"},{"reference":"Encounter/300","display":"Admitted Inpatient"},{"reference":"Encounter/302","display":"Emergency"},{"reference":"Encounter/304","display":"Emergency"}]},{"title":"Problems","code":{"coding":[{"system":"http://loinc.org","code":"11450-4","display":"Problem list"}]},"mode":"snapshot","entry":[{"reference":"Condition/306","display":"Active"},{"reference":"Condition/307","display":"Balloon fire injuring occupant"}]}]}},{"resource":{"resourceType":"Patient","id":"2","meta":{"profile":["http://hl7.org/fhir/StructureDefinition/daf-patient"]},"identifier":[{"use":"official","system":"urn:oid:2.16.840.1.113883.4.319","value":"2743","assigner":{"display":"Hixny"}}],"name":[{"use":"usual","family":"Test","given":["Madigan"]},{"use":"nickname","family":"Madigan","given":["Test"]},{"use":"nickname","family":"TEST","given":["MADIGAN"]},{"use":"nickname","family":"TEST","given":["Madigan"]}],"telecom":[{"system":"phone","value":"(518)466-4646","use":"home"},{"system":"email","value":"mtrembacz@xchangeworx.com"}],"gender":"female","birthDate":"1980-10-01","address":[{"use":"home","line":["Test Lane","\"\""],"city":"Queensbury","state":"NY","postalCode":"12804","country":"US"},{"use":"home","line":["My Best Friend's Rd."],"city":"BlueDog","state":"NY","postalCode":"12888-1234","country":"US"},{"use":"home","line":["TEST LANE"],"city":"QUEENSBURY","state":"NY","postalCode":"12804","country":"US"}],"communication":[{"language":{"coding":[{"system":"http://hl7.org/fhir/ValueSet/languages","code":"EN"}]},"preferred":true}]}},{"resource":{"resourceType":"Organization","id":"4","meta":{"profile":["http://hl7.org/fhir/StructureDefinition/daf-organization"]},"identifier":[{"use":"official","value":"2.16.840.1.113883.4.319"},{"use":"official","system":"urn:oid:2.16.840.1.113883.4.319","value":"HIXNY"}],"name":"Hixny","telecom":[{"system":"phone","value":"(518) 783-0518","use":"work"}],"address":[{"use":"work","line":["15 Cornell Road"],"city":"Latham","state":"NY","postalCode":"12110","country":"US"}]}},{"resource":{"resourceType":"Device","id":"3","identifier":[{"use":"official","value":"2.16.840.1.113883.3.86.3"}],"type":{"coding":[{"display":"InterSystems"}]},"manufacturer":"InterSystems","version":"InterSystems HealthShare","owner":{"reference":"Organization/4"}}},{"resource":{"resourceType":"Practitioner","id":"5","meta":{"profile":["http://hl7.org/fhir/StructureDefinition/daf-pract"]},"name":[{"use":"usual","family":"Healthcare Information Xchange of NY","given":["HealthShare"]}],"telecom":[{"system":"phone","value":"(518) 783-0518","use":"work"}],"address":[{"use":"work","line":["15 Cornell Road"],"city":"Latham","state":"NY","postalCode":"12110","country":"US"}]}},{"resource":{"resourceType":"Practitioner","id":"8","meta":{"profile":["http://hl7.org/fhir/StructureDefinition/daf-pract"]},"identifier":[{"use":"official","system":"urn:oid:2.16.840.1.113883.3.86.3.1","value":"972984"}],"name":[{"use":"usual","family":"Muller","given":["Susan"]}]}},{"resource":{"resourceType":"Practitioner","id":"10","meta":{"profile":["http://hl7.org/fhir/StructureDefinition/daf-pract"]},"identifier":[{"use":"official","system":"urn:oid:2.16.840.1.113883.3.86.3.1","value":"205575"}],"name":[{"use":"usual","family":"GRAFSTEIN","given":["LEO"]}]}},{"resource":{"resourceType":"Practitioner","id":"12","meta":{"profile":["http://hl7.org/fhir/StructureDefinition/daf-pract"]},"identifier":[{"use":"official","system":"urn:oid:2.16.840.1.113883.3.1553","value":"MEDI D"}],"name":[{"use":"usual","family":"MEDITECH","given":["DOCTOR"]}]}},{"resource":{"resourceType":"Practitioner","id":"14","meta":{"profile":["http://hl7.org/fhir/StructureDefinition/daf-pract"]},"identifier":[{"use":"official","system":"urn:oid:1.3.6.1.4.1.39322.99.2.1.3.7.1","value":"806000"}],"name":[{"use":"usual","family":"Everly","given":["Charles"]}]}},{"resource":{"resourceType":"Practitioner","id":"16","meta":{"profile":["http://hl7.org/fhir/StructureDefinition/daf-pract"]},"identifier":[{"use":"official","system":"urn:oid:2.16.840.1.113883.4.319.5","value":"00191"}],"name":[{"use":"usual","family":"CARAMORE","given":["WILLIAM"]}]}},{"resource":{"resourceType":"Practitioner","id":"18","meta":{"profile":["http://hl7.org/fhir/StructureDefinition/daf-pract"]},"identifier":[{"use":"official","system":"urn:uuid:68c57fcf-1d0e-11e6-a308-a0369f62f123","value":"1999866654"}],"name":[{"use":"usual","family":"MEDITECH","given":["DOCTOR"]}],"telecom":[{"system":"phone","value":"841-7539","use":"work"}],"address":[{"use":"work","line":["427 GUY PARK AVE"],"city":"AMSTERDAM","state":"NY","postalCode":"12010"}]}},{"resource":{"resourceType":"Practitioner","id":"20","meta":{"profile":["http://hl7.org/fhir/StructureDefinition/daf-pract"]},"identifier":[{"use":"official","system":"urn:oid:2.16.840.1.113883.4.319.3197.7913","value":"BROT"}],"name":[{"use":"usual","family":"Brooks","given":["Timothy","A"]}]}},{"resource":{"resourceType":"Practitioner","id":"22","meta":{"profile":["http://hl7.org/fhir/StructureDefinition/daf-pract"]},"identifier":[{"use":"official","system":"urn:oid:2.16.840.1.113883.4.6","value":"CPOE,SIP"}],"name":[{"use":"usual","family":"CPOE","given":["SIP"]}]}},{"resource":{"resourceType":"Practitioner","id":"24","meta":{"profile":["http://hl7.org/fhir/StructureDefinition/daf-pract"]},"identifier":[{"use":"official","system":"urn:oid:2.16.840.1.113883.3.86.3.1","value":"CPOESIP"}],"name":[{"use":"usual","family":"PROVIDER","given":["CPOE","SIP TEST"]}]}},{"resource":{"resourceType":"Practitioner","id":"26","meta":{"profile":["http://hl7.org/fhir/StructureDefinition/daf-pract"]},"identifier":[{"use":"official","system":"urn:oid:2.16.840.1.113883.3.86.3.1","value":"1033263553"}],"name":[{"use":"usual","family":"Madigan DO","given":["Heather"]}]}},{"resource":{"resourceType":"Practitioner","id":"28","meta":{"profile":["http://hl7.org/fhir/StructureDefinition/daf-pract"]},"identifier":[{"use":"official","system":"urn:oid:2.16.840.1.113883.3.1553","value":"MEDI D"}],"name":[{"use":"usual","family":"MEDITECH","given":["DOCTOR"]}]}},{"resource":{"resourceType":"Practitioner","id":"30","meta":{"profile":["http://hl7.org/fhir/StructureDefinition/daf-pract"]},"identifier":[{"use":"official","system":"urn:oid:2.16.840.1.113883.4.319.5","value":"00191"}],"name":[{"use":"usual","family":"CARAMORE","given":["WILLIAM"]}]}},{"resource":{"resourceType":"Practitioner","id":"32","meta":{"profile":["http://hl7.org/fhir/StructureDefinition/daf-pract"]},"identifier":[{"use":"official","system":"urn:oid:2.16.840.1.113883.4.319.3197.7913","value":"BROT"}],"name":[{"use":"usual","family":"Brooks","given":["Timothy","A"]}]}},{"resource":{"resourceType":"Practitioner","id":"34","meta":{"profile":["http://hl7.org/fhir/StructureDefinition/daf-pract"]},"identifier":[{"use":"official","system":"urn:oid:2.16.840.1.113883.3.86.3.1","value":"CPOESIP"}],"name":[{"use":"usual","family":"PROVIDER","given":["CPOE","SIP TEST"]}]}},{"resource":{"resourceType":"Practitioner","id":"36","meta":{"profile":["http://hl7.org/fhir/StructureDefinition/daf-pract"]},"identifier":[{"use":"official","system":"urn:oid:2.16.840.1.113883.3.86.3.1","value":"1033263553"}],"name":[{"use":"usual","family":"Madigan DO","given":["Heather"]}]}},{"resource":{"resourceType":"Practitioner","id":"38","meta":{"profile":["http://hl7.org/fhir/StructureDefinition/daf-pract"]},"identifier":[{"use":"official","system":"urn:oid:2.16.840.1.113883.4.6","value":"1033263553"}],"name":[{"use":"usual","family":"Madigan DO","given":["Heather"]}],"address":[{"use":"work","line":["211 Church St"],"city":"SaratogaSprings","state":"NY","postalCode":"12866"}]}},{"resource":{"resourceType":"MedicationStatement","id":"41","meta":{"profile":["http://hl7.org/fhir/StructureDefinition/daf-medicationstatement"]},"identifier":[{"use":"official","value":"BE6E3295-AD7E-4D11-BE58-51443E9F1190","assigner":{"display":"-UnspecifiedPlacerId"}},{"use":"official","value":"0FBD92E9-6309-4ADA-B4F6-4EDB44E09B8C","assigner":{"display":"-UnspecifiedFillerId"}}],"status":"completed","medicationReference":{"reference":"Medication/42","display":"HumaLOG 1unit/0.01mL {BKC}"},"effectivePeriod":{"start":"2014-03-20T16:00:00+00:00","end":"2014-04-19T15:59:00+00:00"},"subject":{"reference":"Patient/2","display":"Madigan Test, Test Madigan, MADIGAN TEST, Madigan TEST"},"taken":"unk","dosage":[{"doseQuantity":{"value":0,"unit":"UNITS","system":"http://unitsofmeasure.org/ucum.html"}}]}},{"resource":{"resourceType":"Medication","id":"42","meta":{"profile":["http://hl7.org/fhir/StructureDefinition/daf-medication"]},"code":{"text":"HumaLOG 1unit/0.01mL {BKC}"}}},{"resource":{"resourceType":"MedicationRequest","id":"43","meta":{"profile":["http://hl7.org/fhir/StructureDefinition/daf-medicationRequest"]},"identifier":[{"use":"official","value":"ABAFB7FE-F956-43F1-A3B2-52A3608B1599","assigner":{"display":"-UnspecifiedPlacerId"}}],"status":"completed","intent":"instance-order","medicationReference":{"reference":"Medication/44","display":"HumaLOG 1unit/0.01mL {BKC}"},"subject":{"reference":"Patient/2","display":"Madigan Test, Test Madigan, MADIGAN TEST, Madigan TEST"},"requester":{"agent":{"reference":"Practitioner/45","display":"Heather Madigan"}}}},{"resource":{"resourceType":"Medication","id":"44","meta":{"profile":["http://hl7.org/fhir/StructureDefinition/daf-medication"]},"code":{"text":"HumaLOG 1unit/0.01mL {BKC}"}}},{"resource":{"resourceType":"Practitioner","id":"45","meta":{"profile":["http://hl7.org/fhir/StructureDefinition/daf-pract"]},"identifier":[{"use":"official","system":"urn:oid:2.16.840.1.113883.3.86.3.1","value":"MADHEA0"}],"name":[{"use":"usual","family":"Madigan","given":["Heather"]}]}},{"resource":{"resourceType":"MedicationDispense","id":"48","meta":{"profile":["http://hl7.org/fhir/StructureDefinition/daf-medicationdispense"]},"status":"completed","medicationReference":{"reference":"Medication/49","display":"HumaLOG 1unit/0.01mL {BKC}"},"subject":{"reference":"Patient/2","display":"Madigan Test, Test Madigan, MADIGAN TEST, Madigan TEST"}}},{"resource":{"resourceType":"Medication","id":"49","meta":{"profile":["http://hl7.org/fhir/StructureDefinition/daf-medication"]},"code":{"text":"HumaLOG 1unit/0.01mL {BKC}"}}},{"resource":{"resourceType":"MedicationStatement","id":"50","meta":{"profile":["http://hl7.org/fhir/StructureDefinition/daf-medicationstatement"]},"identifier":[{"use":"official","value":"7825DA6A-75BF-4FB9-A3B1-52C815C2DFD3","assigner":{"display":"-UnspecifiedPlacerId"}},{"use":"official","value":"78E38904-C500-4522-BA32-033C77F1E0ED","assigner":{"display":"-UnspecifiedFillerId"}}],"status":"completed","medicationReference":{"reference":"Medication/51","display":"Zithromax"},"effectivePeriod":{"start":"2014-03-21T09:00:00+00:00","end":"2014-03-24T09:01:00+00:00"},"subject":{"reference":"Patient/2","display":"Madigan Test, Test Madigan, MADIGAN TEST, Madigan TEST"},"taken":"unk","dosage":[{"doseQuantity":{"value":250,"unit":"MG","system":"http://unitsofmeasure.org/ucum.html"}}]}},{"resource":{"resourceType":"Medication","id":"51","meta":{"profile":["http://hl7.org/fhir/StructureDefinition/daf-medication"]},"code":{"text":"Zithromax"}}},{"resource":{"resourceType":"MedicationRequest","id":"52","meta":{"profile":["http://hl7.org/fhir/StructureDefinition/daf-medicationRequest"]},"identifier":[{"use":"official","value":"7BCF26C5-06D4-41EA-B9BD-306E5D14781B","assigner":{"display":"-UnspecifiedPlacerId"}}],"status":"completed","intent":"instance-order","medicationReference":{"reference":"Medication/53","display":"Zithromax"},"subject":{"reference":"Patient/2","display":"Madigan Test, Test Madigan, MADIGAN TEST, Madigan TEST"},"requester":{"agent":{"reference":"Practitioner/45","display":"Heather Madigan"}}}},{"resource":{"resourceType":"Medication","id":"53","meta":{"profile":["http://hl7.org/fhir/StructureDefinition/daf-medication"]},"code":{"text":"Zithromax"}}},{"resource":{"resourceType":"MedicationDispense","id":"54","meta":{"profile":["http://hl7.org/fhir/StructureDefinition/daf-medicationdispense"]},"status":"completed","medicationReference":{"reference":"Medication/55","display":"Zithromax"},"subject":{"reference":"Patient/2","display":"Madigan Test, Test Madigan, MADIGAN TEST, Madigan TEST"}}},{"resource":{"resourceType":"Medication","id":"55","meta":{"profile":["http://hl7.org/fhir/StructureDefinition/daf-medication"]},"code":{"text":"Zithromax"}}},{"resource":{"resourceType":"MedicationStatement","id":"56","meta":{"profile":["http://hl7.org/fhir/StructureDefinition/daf-medicationstatement"]},"identifier":[{"use":"official","value":"AD8DF799-9C9B-495B-911D-F7BF235F97D6","assigner":{"display":"-UnspecifiedPlacerId"}},{"use":"official","value":"7DDEF9FF-3F6D-4A63-BDA4-6BEC3EDC7E6F","assigner":{"display":"-UnspecifiedFillerId"}}],"status":"completed","medicationReference":{"reference":"Medication/57","display":"Lopressor"},"effectivePeriod":{"start":"2014-03-20T11:07:00+00:00","end":"2014-04-19T11:06:00+00:00"},"subject":{"reference":"Patient/2","display":"Madigan Test, Test Madigan, MADIGAN TEST, Madigan TEST"},"taken":"unk","dosage":[{"doseQuantity":{"value":50,"unit":"MG","system":"http://unitsofmeasure.org/ucum.html"}}]}},{"resource":{"resourceType":"Medication","id":"57","meta":{"profile":["http://hl7.org/fhir/StructureDefinition/daf-medication"]},"code":{"text":"Lopressor"}}},{"resource":{"resourceType":"MedicationRequest","id":"58","meta":{"profile":["http://hl7.org/fhir/StructureDefinition/daf-medicationRequest"]},"identifier":[{"use":"official","value":"8D218FA7-10DA-4B8B-9C0F-89E19BE4F69A","assigner":{"display":"-UnspecifiedPlacerId"}}],"status":"completed","intent":"instance-order","medicationReference":{"reference":"Medication/59","display":"Lopressor"},"subject":{"reference":"Patient/2","display":"Madigan Test, Test Madigan, MADIGAN TEST, Madigan TEST"},"requester":{"agent":{"reference":"Practitioner/45","display":"Heather Madigan"}}}},{"resource":{"resourceType":"Medication","id":"59","meta":{"profile":["http://hl7.org/fhir/StructureDefinition/daf-medication"]},"code":{"text":"Lopressor"}}},{"resource":{"resourceType":"MedicationDispense","id":"60","meta":{"profile":["http://hl7.org/fhir/StructureDefinition/daf-medicationdispense"]},"status":"completed","medicationReference":{"reference":"Medication/61","display":"Lopressor"},"subject":{"reference":"Patient/2","display":"Madigan Test, Test Madigan, MADIGAN TEST, Madigan TEST"}}},{"resource":{"resourceType":"Medication","id":"61","meta":{"profile":["http://hl7.org/fhir/StructureDefinition/daf-medication"]},"code":{"text":"Lopressor"}}},{"resource":{"resourceType":"MedicationStatement","id":"62","meta":{"profile":["http://hl7.org/fhir/StructureDefinition/daf-medicationstatement"]},"identifier":[{"use":"official","value":"28805B6C-0C9E-4156-8E4D-3AB0220DADB7","assigner":{"display":"-UnspecifiedPlacerId"}},{"use":"official","value":"E8136667-9A68-4165-8C54-8093230C1A2D","assigner":{"display":"-UnspecifiedFillerId"}}],"status":"completed","medicationReference":{"reference":"Medication/63","display":"Protonix"},"effectivePeriod":{"start":"2014-03-20T11:44:00+00:00","end":"2014-04-19T11:43:00+00:00"},"subject":{"reference":"Patient/2","display":"Madigan Test, Test Madigan, MADIGAN TEST, Madigan TEST"},"taken":"unk","dosage":[{"doseQuantity":{"value":40,"unit":"MG","system":"http://unitsofmeasure.org/ucum.html"}}]}},{"resource":{"resourceType":"Medication","id":"63","meta":{"profile":["http://hl7.org/fhir/StructureDefinition/daf-medication"]},"code":{"text":"Protonix"}}},{"resource":{"resourceType":"MedicationRequest","id":"64","meta":{"profile":["http://hl7.org/fhir/StructureDefinition/daf-medicationRequest"]},"identifier":[{"use":"official","value":"4B391BBB-090A-4AA4-9EAA-84B1AF217491","assigner":{"display":"-UnspecifiedPlacerId"}}],"status":"completed","intent":"instance-order","medicationReference":{"reference":"Medication/65","display":"Protonix"},"subject":{"reference":"Patient/2","display":"Madigan Test, Test Madigan, MADIGAN TEST, Madigan TEST"},"requester":{"agent":{"reference":"Practitioner/45","display":"Heather Madigan"}}}},{"resource":{"resourceType":"Medication","id":"65","meta":{"profile":["http://hl7.org/fhir/StructureDefinition/daf-medication"]},"code":{"text":"Protonix"}}},{"resource":{"resourceType":"MedicationDispense","id":"66","meta":{"profile":["http://hl7.org/fhir/StructureDefinition/daf-medicationdispense"]},"status":"completed","medicationReference":{"reference":"Medication/67","display":"Protonix"},"subject":{"reference":"Patient/2","display":"Madigan Test, Test Madigan, MADIGAN TEST, Madigan TEST"}}},{"resource":{"resourceType":"Medication","id":"67","meta":{"profile":["http://hl7.org/fhir/StructureDefinition/daf-medication"]},"code":{"text":"Protonix"}}},{"resource":{"resourceType":"MedicationStatement","id":"68","meta":{"profile":["http://hl7.org/fhir/StructureDefinition/daf-medicationstatement"]},"identifier":[{"use":"official","value":"551E0D4F-DE37-4643-9CC8-C35E1937E55C","assigner":{"display":"-UnspecifiedPlacerId"}},{"use":"official","value":"A6BA2AFF-2A8F-4DEA-96E9-9F6230212E97","assigner":{"display":"-UnspecifiedFillerId"}}],"status":"completed","medicationReference":{"reference":"Medication/69","display":"Morphine L.l Syringe"},"effectivePeriod":{"start":"2014-03-20T11:15:00+00:00","end":"2014-03-27T11:14:00+00:00"},"subject":{"reference":"Patient/2","display":"Madigan Test, Test Madigan, MADIGAN TEST, Madigan TEST"},"taken":"unk","dosage":[{"doseQuantity":{"value":2,"unit":"MG","system":"http://unitsofmeasure.org/ucum.html"}}]}},{"resource":{"resourceType":"Medication","id":"69","meta":{"profile":["http://hl7.org/fhir/StructureDefinition/daf-medication"]},"code":{"text":"Morphine L.l Syringe"}}},{"resource":{"resourceType":"MedicationRequest","id":"70","meta":{"profile":["http://hl7.org/fhir/StructureDefinition/daf-medicationRequest"]},"identifier":[{"use":"official","value":"4875E4B1-9EAF-4122-8E8B-8FA37A1FB5AB","assigner":{"display":"-UnspecifiedPlacerId"}}],"status":"completed","intent":"instance-order","medicationReference":{"reference":"Medication/71","display":"Morphine L.l Syringe"},"subject":{"reference":"Patient/2","display":"Madigan Test, Test Madigan, MADIGAN TEST, Madigan TEST"},"requester":{"agent":{"reference":"Practitioner/45","display":"Heather Madigan"}}}},{"resource":{"resourceType":"Medication","id":"71","meta":{"profile":["http://hl7.org/fhir/StructureDefinition/daf-medication"]},"code":{"text":"Morphine L.l Syringe"}}},{"resource":{"resourceType":"MedicationDispense","id":"72","meta":{"profile":["http://hl7.org/fhir/StructureDefinition/daf-medicationdispense"]},"status":"completed","medicationReference":{"reference":"Medication/73","display":"Morphine L.l Syringe"},"subject":{"reference":"Patient/2","display":"Madigan Test, Test Madigan, MADIGAN TEST, Madigan TEST"}}},{"resource":{"resourceType":"Medication","id":"73","meta":{"profile":["http://hl7.org/fhir/StructureDefinition/daf-medication"]},"code":{"text":"Morphine L.l Syringe"}}},{"resource":{"resourceType":"MedicationStatement","id":"74","meta":{"profile":["http://hl7.org/fhir/StructureDefinition/daf-medicationstatement"]},"identifier":[{"use":"official","value":"94AD4EAE-1F71-48ED-BA56-BE3D429766A5","assigner":{"display":"-UnspecifiedPlacerId"}},{"use":"official","value":"C4E6BC08-E79F-4AC2-83EB-F3ABB06B84EA","assigner":{"display":"-UnspecifiedFillerId"}}],"status":"completed","medicationReference":{"reference":"Medication/75","display":"Fluzone Pediatric Pf 2013-2014"},"effectivePeriod":{"start":"2014-04-09T09:44:00+00:00","end":"2014-04-09T09:45:00+00:00"},"subject":{"reference":"Patient/2","display":"Madigan Test, Test Madigan, MADIGAN TEST, Madigan TEST"},"taken":"unk","dosage":[{"doseQuantity":{"value":0.5,"unit":"ML","system":"http://unitsofmeasure.org/ucum.html"}}]}},{"resource":{"resourceType":"Medication","id":"75","meta":{"profile":["http://hl7.org/fhir/StructureDefinition/daf-medication"]},"code":{"text":"Fluzone Pediatric Pf 2013-2014"}}},{"resource":{"resourceType":"MedicationRequest","id":"76","meta":{"profile":["http://hl7.org/fhir/StructureDefinition/daf-medicationRequest"]},"identifier":[{"use":"official","value":"42F3032C-8D3A-40C7-8C96-66CB423D9EC8","assigner":{"display":"-UnspecifiedPlacerId"}}],"status":"completed","intent":"instance-order","medicationReference":{"reference":"Medication/77","display":"Fluzone Pediatric Pf 2013-2014"},"subject":{"reference":"Patient/2","display":"Madigan Test, Test Madigan, MADIGAN TEST, Madigan TEST"},"requester":{"agent":{"reference":"Practitioner/34","display":"CPOE SIP TEST PROVIDER"}}}},{"resource":{"resourceType":"Medication","id":"77","meta":{"profile":["http://hl7.org/fhir/StructureDefinition/daf-medication"]},"code":{"text":"Fluzone Pediatric Pf 2013-2014"}}},{"resource":{"resourceType":"MedicationDispense","id":"78","meta":{"profile":["http://hl7.org/fhir/StructureDefinition/daf-medicationdispense"]},"status":"completed","medicationReference":{"reference":"Medication/79","display":"Fluzone Pediatric Pf 2013-2014"},"subject":{"reference":"Patient/2","display":"Madigan Test, Test Madigan, MADIGAN TEST, Madigan TEST"}}},{"resource":{"resourceType":"Medication","id":"79","meta":{"profile":["http://hl7.org/fhir/StructureDefinition/daf-medication"]},"code":{"text":"Fluzone Pediatric Pf 2013-2014"}}},{"resource":{"resourceType":"MedicationStatement","id":"80","meta":{"profile":["http://hl7.org/fhir/StructureDefinition/daf-medicationstatement"]},"identifier":[{"use":"official","system":"urn:oid:2.16.840.1.113883.4.516","value":"56EE5BD2-071F-424F-B1CE-A8981921E2A1","assigner":{"display":"SHFGW-PlacerId"}},{"use":"official","system":"urn:oid:2.16.840.1.113883.4.516","value":"5FC0E6FF-76B2-4E9C-B535-9DAD1C271B14","assigner":{"display":"SHFGW-FillerId"}}],"status":"completed","medicationReference":{"reference":"Medication/81","display":"Lipitor(Atorvastatin Calcium) 40 MG TABLET Total Dose: 40 MG"},"effectivePeriod":{"start":"1840-12-31T00:00:00+00:00","end":"2014-04-09T00:00:00+00:00"},"subject":{"reference":"Patient/2","display":"Madigan Test, Test Madigan, MADIGAN TEST, Madigan TEST"},"taken":"unk","dosage":[{"doseQuantity":{"value":40,"unit":"MG","system":"http://unitsofmeasure.org/ucum.html"}}]}},{"resource":{"resourceType":"Medication","id":"81","meta":{"profile":["http://hl7.org/fhir/StructureDefinition/daf-medication"]},"code":{"coding":[{"system":"urn:oid:2.16.840.1.113883.6.69","code":"00071015740","display":"Lipitor(Atorvastatin Calcium) 40 MG TABLET Total Dose: 40 MG"},{"system":"urn:oid:2.16.840.1.113883.6.69","code":"00071015740","display":"Lipitor(Atorvastatin Calcium) 40 MG TABLET Total Dose: 40 MG"}],"text":"Lipitor(Atorvastatin Calcium) 40 MG TABLET Total Dose: 40 MG"}}},{"resource":{"resourceType":"MedicationRequest","id":"82","meta":{"profile":["http://hl7.org/fhir/StructureDefinition/daf-medicationRequest"]},"identifier":[{"use":"official","system":"urn:oid:2.16.840.1.113883.4.516","value":"56EE5BD2-071F-424F-B1CE-A8981921E2A1","assigner":{"display":"SHFGW-PlacerId"}}],"status":"completed","intent":"instance-order","medicationReference":{"reference":"Medication/81","display":"Lipitor(Atorvastatin Calcium) 40 MG TABLET Total Dose: 40 MG"},"subject":{"reference":"Patient/2","display":"Madigan Test, Test Madigan, MADIGAN TEST, Madigan TEST"}}},{"resource":{"resourceType":"MedicationStatement","id":"84","meta":{"profile":["http://hl7.org/fhir/StructureDefinition/daf-medicationstatement"]},"identifier":[{"use":"official","value":"216DD05A-8885-4CC5-9309-F9D37F9F723B","assigner":{"display":"-UnspecifiedPlacerId"}},{"use":"official","value":"550EDAF9-F0FA-42EE-9457-2B3D42D04646","assigner":{"display":"-UnspecifiedFillerId"}}],"status":"completed","medicationReference":{"reference":"Medication/85","display":"Ventolin-HFA"},"effectivePeriod":{"start":"2014-03-20T11:30:00+00:00","end":"2014-04-19T11:29:00+00:00"},"subject":{"reference":"Patient/2","display":"Madigan Test, Test Madigan, MADIGAN TEST, Madigan TEST"},"taken":"unk","dosage":[{"doseQuantity":{"value":0,"unit":"GM","system":"http://unitsofmeasure.org/ucum.html"}}]}},{"resource":{"resourceType":"Medication","id":"85","meta":{"profile":["http://hl7.org/fhir/StructureDefinition/daf-medication"]},"code":{"text":"Ventolin-HFA"}}},{"resource":{"resourceType":"MedicationRequest","id":"86","meta":{"profile":["http://hl7.org/fhir/StructureDefinition/daf-medicationRequest"]},"identifier":[{"use":"official","value":"4927F799-A6C9-4B72-821A-486F48425AA8","assigner":{"display":"-UnspecifiedPlacerId"}}],"status":"completed","intent":"instance-order","medicationReference":{"reference":"Medication/87","display":"Ventolin-HFA"},"subject":{"reference":"Patient/2","display":"Madigan Test, Test Madigan, MADIGAN TEST, Madigan TEST"},"requester":{"agent":{"reference":"Practitioner/45","display":"Heather Madigan"}}}},{"resource":{"resourceType":"Medication","id":"87","meta":{"profile":["http://hl7.org/fhir/StructureDefinition/daf-medication"]},"code":{"text":"Ventolin-HFA"}}},{"resource":{"resourceType":"MedicationDispense","id":"88","meta":{"profile":["http://hl7.org/fhir/StructureDefinition/daf-medicationdispense"]},"status":"completed","medicationReference":{"reference":"Medication/89","display":"Ventolin-HFA"},"subject":{"reference":"Patient/2","display":"Madigan Test, Test Madigan, MADIGAN TEST, Madigan TEST"}}},{"resource":{"resourceType":"Medication","id":"89","meta":{"profile":["http://hl7.org/fhir/StructureDefinition/daf-medication"]},"code":{"text":"Ventolin-HFA"}}},{"resource":{"resourceType":"MedicationStatement","id":"90","meta":{"profile":["http://hl7.org/fhir/StructureDefinition/daf-medicationstatement"]},"identifier":[{"use":"official","system":"urn:oid:2.16.840.1.113883.4.516","value":"21FDC932-FF79-47C0-A8E3-378E90196ACE","assigner":{"display":"SHFGW-PlacerId"}},{"use":"official","system":"urn:oid:2.16.840.1.113883.4.516","value":"7042DF8B-DE6E-42B8-8215-9FEBCEA009E1","assigner":{"display":"SHFGW-FillerId"}}],"status":"completed","medicationReference":{"reference":"Medication/91","display":"Lasix(FUROSEMIDE) 20 MG TABLET Total Dose: 10 MG"},"effectivePeriod":{"start":"2014-04-09T00:00:00+00:00","end":"2014-04-09T00:00:00+00:00"},"subject":{"reference":"Patient/2","display":"Madigan Test, Test Madigan, MADIGAN TEST, Madigan TEST"},"taken":"unk","dosage":[{"doseQuantity":{"value":10,"unit":"MG","system":"http://unitsofmeasure.org/ucum.html"}}]}},{"resource":{"resourceType":"Medication","id":"91","meta":{"profile":["http://hl7.org/fhir/StructureDefinition/daf-medication"]},"code":{"coding":[{"system":"urn:oid:2.16.840.1.113883.6.69","code":"51079007220A","display":"Lasix(FUROSEMIDE) 20 MG TABLET Total Dose: 10 MG"},{"system":"urn:oid:2.16.840.1.113883.6.69","code":"51079007220A","display":"Lasix(FUROSEMIDE) 20 MG TABLET Total Dose: 10 MG"}],"text":"Lasix(FUROSEMIDE) 20 MG TABLET Total Dose: 10 MG"}}},{"resource":{"resourceType":"MedicationRequest","id":"92","meta":{"profile":["http://hl7.org/fhir/StructureDefinition/daf-medicationRequest"]},"identifier":[{"use":"official","system":"urn:oid:2.16.840.1.113883.4.516","value":"21FDC932-FF79-47C0-A8E3-378E90196ACE","assigner":{"display":"SHFGW-PlacerId"}}],"status":"completed","intent":"instance-order","medicationReference":{"reference":"Medication/91","display":"Lasix(FUROSEMIDE) 20 MG TABLET Total Dose: 10 MG"},"subject":{"reference":"Patient/2","display":"Madigan Test, Test Madigan, MADIGAN TEST, Madigan TEST"}}},{"resource":{"resourceType":"MedicationStatement","id":"94","meta":{"profile":["http://hl7.org/fhir/StructureDefinition/daf-medicationstatement"]},"identifier":[{"use":"official","system":"urn:oid:2.16.840.1.113883.4.516","value":"751AC50F-1BD0-4F92-A6E9-E78E4383E956","assigner":{"display":"SHFGW-PlacerId"}},{"use":"official","system":"urn:oid:2.16.840.1.113883.4.516","value":"96353629-EE3F-444F-8F61-DE4BB9B3E511","assigner":{"display":"SHFGW-FillerId"}}],"status":"completed","medicationReference":{"reference":"Medication/95","display":"NORCO 5-325 MG(Hydrocodone/Acetaminophen) 1 TAB TABLET Total Dose: 1 TAB"},"effectivePeriod":{"start":"1840-12-31T00:00:00+00:00","end":"2014-04-09T00:00:00+00:00"},"subject":{"reference":"Patient/2","display":"Madigan Test, Test Madigan, MADIGAN TEST, Madigan TEST"},"taken":"unk","dosage":[{"doseQuantity":{"value":1,"unit":"UNK","system":"http://unitsofmeasure.org/ucum.html"}}]}},{"resource":{"resourceType":"Medication","id":"95","meta":{"profile":["http://hl7.org/fhir/StructureDefinition/daf-medication"]},"code":{"coding":[{"system":"urn:oid:2.16.840.1.113883.6.69","code":"55289089415","display":"NORCO 5-325 MG(Hydrocodone/Acetaminophen) 1 TAB TABLET Total Dose: 1 TAB"},{"system":"urn:oid:2.16.840.1.113883.6.69","code":"55289089415","display":"NORCO 5-325 MG(Hydrocodone/Acetaminophen) 1 TAB TABLET Total Dose: 1 TAB"}],"text":"NORCO 5-325 MG(Hydrocodone/Acetaminophen) 1 TAB TABLET Total Dose: 1 TAB"}}},{"resource":{"resourceType":"MedicationRequest","id":"96","meta":{"profile":["http://hl7.org/fhir/StructureDefinition/daf-medicationRequest"]},"identifier":[{"use":"official","system":"urn:oid:2.16.840.1.113883.4.516","value":"751AC50F-1BD0-4F92-A6E9-E78E4383E956","assigner":{"display":"SHFGW-PlacerId"}}],"status":"completed","intent":"instance-order","medicationReference":{"reference":"Medication/95","display":"NORCO 5-325 MG(Hydrocodone/Acetaminophen) 1 TAB TABLET Total Dose: 1 TAB"},"subject":{"reference":"Patient/2","display":"Madigan Test, Test Madigan, MADIGAN TEST, Madigan TEST"}}},{"resource":{"resourceType":"MedicationStatement","id":"98","meta":{"profile":["http://hl7.org/fhir/StructureDefinition/daf-medicationstatement"]},"identifier":[{"use":"official","system":"urn:oid:2.16.840.1.113883.4.516","value":"90F8701C-A533-45BC-B656-D638C9852826","assigner":{"display":"SHFGW-PlacerId"}},{"use":"official","system":"urn:oid:2.16.840.1.113883.4.516","value":"71FCD197-E35F-49BE-8098-6B58CAA0925C","assigner":{"display":"SHFGW-FillerId"}}],"status":"completed","medicationReference":{"reference":"Medication/81","display":"Lipitor(Atorvastatin Calcium) 40 MG TABLET Total Dose: 40 MG"},"effectivePeriod":{"start":"1840-12-31T00:00:00+00:00","end":"2014-04-09T00:00:00+00:00"},"subject":{"reference":"Patient/2","display":"Madigan Test, Test Madigan, MADIGAN TEST, Madigan TEST"},"taken":"unk","dosage":[{"doseQuantity":{"value":40,"unit":"MG","system":"http://unitsofmeasure.org/ucum.html"}}]}},{"resource":{"resourceType":"MedicationRequest","id":"100","meta":{"profile":["http://hl7.org/fhir/StructureDefinition/daf-medicationRequest"]},"identifier":[{"use":"official","system":"urn:oid:2.16.840.1.113883.4.516","value":"90F8701C-A533-45BC-B656-D638C9852826","assigner":{"display":"SHFGW-PlacerId"}}],"status":"completed","intent":"instance-order","medicationReference":{"reference":"Medication/81","display":"Lipitor(Atorvastatin Calcium) 40 MG TABLET Total Dose: 40 MG"},"subject":{"reference":"Patient/2","display":"Madigan Test, Test Madigan, MADIGAN TEST, Madigan TEST"}}},{"resource":{"resourceType":"MedicationStatement","id":"102","meta":{"profile":["http://hl7.org/fhir/StructureDefinition/daf-medicationstatement"]},"identifier":[{"use":"official","value":"3412E43A-2FB9-44F8-BD6C-07755DFDD0ED","assigner":{"display":"-UnspecifiedPlacerId"}},{"use":"official","value":"20D24FB5-2D7F-4FEB-81BA-51FEF35C3905","assigner":{"display":"-UnspecifiedFillerId"}}],"status":"completed","medicationReference":{"reference":"Medication/103","display":"ZESTRIL/PRINIVIL"},"effectivePeriod":{"start":"2014-03-20T11:43:00+00:00","end":"2014-04-19T11:42:00+00:00"},"subject":{"reference":"Patient/2","display":"Madigan Test, Test Madigan, MADIGAN TEST, Madigan TEST"},"taken":"unk","dosage":[{"doseQuantity":{"value":5,"unit":"MG","system":"http://unitsofmeasure.org/ucum.html"}}]}},{"resource":{"resourceType":"Medication","id":"103","meta":{"profile":["http://hl7.org/fhir/StructureDefinition/daf-medication"]},"code":{"text":"ZESTRIL/PRINIVIL"}}},{"resource":{"resourceType":"MedicationRequest","id":"104","meta":{"profile":["http://hl7.org/fhir/StructureDefinition/daf-medicationRequest"]},"identifier":[{"use":"official","value":"E16EF4FE-2D00-4395-BE13-37E5B80A65AA","assigner":{"display":"-UnspecifiedPlacerId"}}],"status":"completed","intent":"instance-order","medicationReference":{"reference":"Medication/105","display":"ZESTRIL/PRINIVIL"},"subject":{"reference":"Patient/2","display":"Madigan Test, Test Madigan, MADIGAN TEST, Madigan TEST"},"requester":{"agent":{"reference":"Practitioner/45","display":"Heather Madigan"}}}},{"resource":{"resourceType":"Medication","id":"105","meta":{"profile":["http://hl7.org/fhir/StructureDefinition/daf-medication"]},"code":{"text":"ZESTRIL/PRINIVIL"}}},{"resource":{"resourceType":"MedicationDispense","id":"106","meta":{"profile":["http://hl7.org/fhir/StructureDefinition/daf-medicationdispense"]},"status":"completed","medicationReference":{"reference":"Medication/107","display":"ZESTRIL/PRINIVIL"},"subject":{"reference":"Patient/2","display":"Madigan Test, Test Madigan, MADIGAN TEST, Madigan TEST"}}},{"resource":{"resourceType":"Medication","id":"107","meta":{"profile":["http://hl7.org/fhir/StructureDefinition/daf-medication"]},"code":{"text":"ZESTRIL/PRINIVIL"}}},{"resource":{"resourceType":"MedicationStatement","id":"108","meta":{"profile":["http://hl7.org/fhir/StructureDefinition/daf-medicationstatement"]},"identifier":[{"use":"official","value":"5078FD89-71F1-48A8-8A8A-3637731E2F94","assigner":{"display":"-UnspecifiedPlacerId"}},{"use":"official","value":"4F16153E-69B7-4929-AD76-316FC11D2C28","assigner":{"display":"-UnspecifiedFillerId"}}],"status":"completed","medicationReference":{"reference":"Medication/109","display":"Lovenox"},"effectivePeriod":{"start":"2014-03-20T11:30:00+00:00","end":"2014-04-19T11:29:00+00:00"},"subject":{"reference":"Patient/2","display":"Madigan Test, Test Madigan, MADIGAN TEST, Madigan TEST"},"taken":"unk","dosage":[{"doseQuantity":{"value":54,"unit":"MG","system":"http://unitsofmeasure.org/ucum.html"}}]}},{"resource":{"resourceType":"Medication","id":"109","meta":{"profile":["http://hl7.org/fhir/StructureDefinition/daf-medication"]},"code":{"text":"Lovenox"}}},{"resource":{"resourceType":"MedicationRequest","id":"110","meta":{"profile":["http://hl7.org/fhir/StructureDefinition/daf-medicationRequest"]},"identifier":[{"use":"official","value":"78FA8A54-287C-4217-BDA4-4E60D921C0DF","assigner":{"display":"-UnspecifiedPlacerId"}}],"status":"completed","intent":"instance-order","medicationReference":{"reference":"Medication/111","display":"Lovenox"},"subject":{"reference":"Patient/2","display":"Madigan Test, Test Madigan, MADIGAN TEST, Madigan TEST"},"requester":{"agent":{"reference":"Practitioner/45","display":"Heather Madigan"}}}},{"resource":{"resourceType":"Medication","id":"111","meta":{"profile":["http://hl7.org/fhir/StructureDefinition/daf-medication"]},"code":{"text":"Lovenox"}}},{"resource":{"resourceType":"MedicationDispense","id":"112","meta":{"profile":["http://hl7.org/fhir/StructureDefinition/daf-medicationdispense"]},"status":"completed","medicationReference":{"reference":"Medication/113","display":"Lovenox"},"subject":{"reference":"Patient/2","display":"Madigan Test, Test Madigan, MADIGAN TEST, Madigan TEST"}}},{"resource":{"resourceType":"Medication","id":"113","meta":{"profile":["http://hl7.org/fhir/StructureDefinition/daf-medication"]},"code":{"text":"Lovenox"}}},{"resource":{"resourceType":"MedicationStatement","id":"114","meta":{"profile":["http://hl7.org/fhir/StructureDefinition/daf-medicationstatement"]},"identifier":[{"use":"official","value":"93CC90E4-1F53-43FA-AE62-565604EBAD23","assigner":{"display":"-UnspecifiedPlacerId"}},{"use":"official","value":"873D174C-37AE-41FB-A594-988F6FF040FC","assigner":{"display":"-UnspecifiedFillerId"}}],"status":"completed","medicationReference":{"reference":"Medication/115","display":"Lovenox 40MG SYRINGE"},"effectivePeriod":{"start":"2014-03-20T12:30:00+00:00","end":"2014-04-19T12:29:00+00:00"},"subject":{"reference":"Patient/2","display":"Madigan Test, Test Madigan, MADIGAN TEST, Madigan TEST"},"taken":"unk","dosage":[{"timing":{"repeat":{"period":24,"periodUnit":"h"}},"doseQuantity":{"value":40,"unit":"MG","system":"http://unitsofmeasure.org/ucum.html"}}]}},{"resource":{"resourceType":"Medication","id":"115","meta":{"profile":["http://hl7.org/fhir/StructureDefinition/daf-medication"]},"code":{"text":"Lovenox 40MG SYRINGE"}}},{"resource":{"resourceType":"MedicationRequest","id":"116","meta":{"profile":["http://hl7.org/fhir/StructureDefinition/daf-medicationRequest"]},"identifier":[{"use":"official","value":"44673F8F-03EE-4554-8B01-0F4B8ABEBF7C","assigner":{"display":"-UnspecifiedPlacerId"}}],"status":"completed","intent":"instance-order","medicationReference":{"reference":"Medication/117","display":"Lovenox 40MG SYRINGE"},"subject":{"reference":"Patient/2","display":"Madigan Test, Test Madigan, MADIGAN TEST, Madigan TEST"},"requester":{"agent":{"reference":"Practitioner/45","display":"Heather Madigan"}}}},{"resource":{"resourceType":"Medication","id":"117","meta":{"profile":["http://hl7.org/fhir/StructureDefinition/daf-medication"]},"code":{"text":"Lovenox 40MG SYRINGE"}}},{"resource":{"resourceType":"MedicationDispense","id":"118","meta":{"profile":["http://hl7.org/fhir/StructureDefinition/daf-medicationdispense"]},"status":"completed","medicationReference":{"reference":"Medication/119","display":"Lovenox 40MG SYRINGE"},"subject":{"reference":"Patient/2","display":"Madigan Test, Test Madigan, MADIGAN TEST, Madigan TEST"}}},{"resource":{"resourceType":"Medication","id":"119","meta":{"profile":["http://hl7.org/fhir/StructureDefinition/daf-medication"]},"code":{"text":"Lovenox 40MG SYRINGE"}}},{"resource":{"resourceType":"MedicationStatement","id":"120","meta":{"profile":["http://hl7.org/fhir/StructureDefinition/daf-medicationstatement"]},"identifier":[{"use":"official","value":"E92A62BD-B3B2-4CE4-A613-07789173ADE6","assigner":{"display":"-UnspecifiedPlacerId"}},{"use":"official","value":"41706F94-A779-4559-93A4-951E09D2DAF9","assigner":{"display":"-UnspecifiedFillerId"}}],"status":"completed","medicationReference":{"reference":"Medication/121","display":"Duonebs"},"effectivePeriod":{"start":"2014-03-20T16:00:00+00:00","end":"2014-04-19T15:59:00+00:00"},"subject":{"reference":"Patient/2","display":"Madigan Test, Test Madigan, MADIGAN TEST, Madigan TEST"},"taken":"unk","dosage":[{"doseQuantity":{"value":3,"unit":"ML","system":"http://unitsofmeasure.org/ucum.html"}}]}},{"resource":{"resourceType":"Medication","id":"121","meta":{"profile":["http://hl7.org/fhir/StructureDefinition/daf-medication"]},"code":{"text":"Duonebs"}}},{"resource":{"resourceType":"MedicationRequest","id":"122","meta":{"profile":["http://hl7.org/fhir/StructureDefinition/daf-medicationRequest"]},"identifier":[{"use":"official","value":"5CD6089B-AC7C-4E35-95AE-33C483311564","assigner":{"display":"-UnspecifiedPlacerId"}}],"status":"completed","intent":"instance-order","medicationReference":{"reference":"Medication/123","display":"Duonebs"},"subject":{"reference":"Patient/2","display":"Madigan Test, Test Madigan, MADIGAN TEST, Madigan TEST"},"requester":{"agent":{"reference":"Practitioner/45","display":"Heather Madigan"}}}},{"resource":{"resourceType":"Medication","id":"123","meta":{"profile":["http://hl7.org/fhir/StructureDefinition/daf-medication"]},"code":{"text":"Duonebs"}}},{"resource":{"resourceType":"MedicationDispense","id":"124","meta":{"profile":["http://hl7.org/fhir/StructureDefinition/daf-medicationdispense"]},"status":"completed","medicationReference":{"reference":"Medication/125","display":"Duonebs"},"subject":{"reference":"Patient/2","display":"Madigan Test, Test Madigan, MADIGAN TEST, Madigan TEST"}}},{"resource":{"resourceType":"Medication","id":"125","meta":{"profile":["http://hl7.org/fhir/StructureDefinition/daf-medication"]},"code":{"text":"Duonebs"}}},{"resource":{"resourceType":"MedicationStatement","id":"126","meta":{"profile":["http://hl7.org/fhir/StructureDefinition/daf-medicationstatement"]},"identifier":[{"use":"official","value":"159445E8-69AD-4A38-A0A9-B7A4BDBB6567","assigner":{"display":"-UnspecifiedPlacerId"}},{"use":"official","value":"31294E1E-1A80-4DFD-B0E8-504F0A96D9CE","assigner":{"display":"-UnspecifiedFillerId"}}],"status":"completed","medicationReference":{"reference":"Medication/127","display":"COLACE"},"effectivePeriod":{"start":"2014-03-20T12:30:00+00:00","end":"2014-04-19T12:29:00+00:00"},"subject":{"reference":"Patient/2","display":"Madigan Test, Test Madigan, MADIGAN TEST, Madigan TEST"},"taken":"unk","dosage":[{"doseQuantity":{"value":100,"unit":"MG","system":"http://unitsofmeasure.org/ucum.html"}}]}},{"resource":{"resourceType":"Medication","id":"127","meta":{"profile":["http://hl7.org/fhir/StructureDefinition/daf-medication"]},"code":{"text":"COLACE"}}},{"resource":{"resourceType":"MedicationRequest","id":"128","meta":{"profile":["http://hl7.org/fhir/StructureDefinition/daf-medicationRequest"]},"identifier":[{"use":"official","value":"B1E92446-BC7F-470F-B59E-4366EE28BB20","assigner":{"display":"-UnspecifiedPlacerId"}}],"status":"completed","intent":"instance-order","medicationReference":{"reference":"Medication/129","display":"COLACE"},"subject":{"reference":"Patient/2","display":"Madigan Test, Test Madigan, MADIGAN TEST, Madigan TEST"},"requester":{"agent":{"reference":"Practitioner/45","display":"Heather Madigan"}}}},{"resource":{"resourceType":"Medication","id":"129","meta":{"profile":["http://hl7.org/fhir/StructureDefinition/daf-medication"]},"code":{"text":"COLACE"}}},{"resource":{"resourceType":"MedicationDispense","id":"130","meta":{"profile":["http://hl7.org/fhir/StructureDefinition/daf-medicationdispense"]},"status":"completed","medicationReference":{"reference":"Medication/131","display":"COLACE"},"subject":{"reference":"Patient/2","display":"Madigan Test, Test Madigan, MADIGAN TEST, Madigan TEST"}}},{"resource":{"resourceType":"Medication","id":"131","meta":{"profile":["http://hl7.org/fhir/StructureDefinition/daf-medication"]},"code":{"text":"COLACE"}}},{"resource":{"resourceType":"MedicationStatement","id":"132","meta":{"profile":["http://hl7.org/fhir/StructureDefinition/daf-medicationstatement"]},"identifier":[{"use":"official","system":"urn:oid:2.16.840.1.113883.4.516","value":"A22B5551-BE6B-4F57-A15E-13978332AE5E","assigner":{"display":"SHFGW-PlacerId"}},{"use":"official","system":"urn:oid:2.16.840.1.113883.4.516","value":"CB72A15A-42D1-46BB-8123-3F63571A6334","assigner":{"display":"SHFGW-FillerId"}}],"status":"completed","medicationReference":{"reference":"Medication/133","display":"Lisinopril 5MG Tab(LISINOPRIL) 5 MG TABLET Total Dose: 5 MG"},"effectivePeriod":{"start":"1840-12-31T00:00:00+00:00","end":"2014-04-09T00:00:00+00:00"},"subject":{"reference":"Patient/2","display":"Madigan Test, Test Madigan, MADIGAN TEST, Madigan TEST"},"taken":"unk","dosage":[{"doseQuantity":{"value":5,"unit":"MG","system":"http://unitsofmeasure.org/ucum.html"}}]}},{"resource":{"resourceType":"Medication","id":"133","meta":{"profile":["http://hl7.org/fhir/StructureDefinition/daf-medication"]},"code":{"coding":[{"system":"urn:oid:2.16.840.1.113883.6.69","code":"67544017360","display":"Lisinopril 5MG Tab(LISINOPRIL) 5 MG TABLET Total Dose: 5 MG"},{"system":"urn:oid:2.16.840.1.113883.6.69","code":"67544017360","display":"Lisinopril 5MG Tab(LISINOPRIL) 5 MG TABLET Total Dose: 5 MG"}],"text":"Lisinopril 5MG Tab(LISINOPRIL) 5 MG TABLET Total Dose: 5 MG"}}},{"resource":{"resourceType":"MedicationRequest","id":"134","meta":{"profile":["http://hl7.org/fhir/StructureDefinition/daf-medicationRequest"]},"identifier":[{"use":"official","system":"urn:oid:2.16.840.1.113883.4.516","value":"A22B5551-BE6B-4F57-A15E-13978332AE5E","assigner":{"display":"SHFGW-PlacerId"}}],"status":"completed","intent":"instance-order","medicationReference":{"reference":"Medication/133","display":"Lisinopril 5MG Tab(LISINOPRIL) 5 MG TABLET Total Dose: 5 MG"},"subject":{"reference":"Patient/2","display":"Madigan Test, Test Madigan, MADIGAN TEST, Madigan TEST"}}},{"resource":{"resourceType":"MedicationStatement","id":"136","meta":{"profile":["http://hl7.org/fhir/StructureDefinition/daf-medicationstatement"]},"identifier":[{"use":"official","value":"98C4CCFA-09D0-4E3A-8BF8-472937A99C22","assigner":{"display":"-UnspecifiedPlacerId"}},{"use":"official","value":"4CE6A4AD-B95D-414A-9912-7E381058B2C8","assigner":{"display":"-UnspecifiedFillerId"}}],"status":"completed","medicationReference":{"reference":"Medication/137","display":"Prednisone/Deltasone"},"effectivePeriod":{"start":"2014-03-20T11:24:00+00:00","end":"2014-03-28T11:23:00+00:00"},"subject":{"reference":"Patient/2","display":"Madigan Test, Test Madigan, MADIGAN TEST, Madigan TEST"},"taken":"unk","dosage":[{"doseQuantity":{"value":40,"unit":"MG","system":"http://unitsofmeasure.org/ucum.html"}}]}},{"resource":{"resourceType":"Medication","id":"137","meta":{"profile":["http://hl7.org/fhir/StructureDefinition/daf-medication"]},"code":{"text":"Prednisone/Deltasone"}}},{"resource":{"resourceType":"MedicationRequest","id":"138","meta":{"profile":["http://hl7.org/fhir/StructureDefinition/daf-medicationRequest"]},"identifier":[{"use":"official","value":"CE1A1DC4-4B47-4335-BFDF-430B2AB37D32","assigner":{"display":"-UnspecifiedPlacerId"}}],"status":"completed","intent":"instance-order","medicationReference":{"reference":"Medication/139","display":"Prednisone/Deltasone"},"subject":{"reference":"Patient/2","display":"Madigan Test, Test Madigan, MADIGAN TEST, Madigan TEST"},"requester":{"agent":{"reference":"Practitioner/45","display":"Heather Madigan"}}}},{"resource":{"resourceType":"Medication","id":"139","meta":{"profile":["http://hl7.org/fhir/StructureDefinition/daf-medication"]},"code":{"text":"Prednisone/Deltasone"}}},{"resource":{"resourceType":"MedicationDispense","id":"140","meta":{"profile":["http://hl7.org/fhir/StructureDefinition/daf-medicationdispense"]},"status":"completed","medicationReference":{"reference":"Medication/141","display":"Prednisone/Deltasone"},"subject":{"reference":"Patient/2","display":"Madigan Test, Test Madigan, MADIGAN TEST, Madigan TEST"}}},{"resource":{"resourceType":"Medication","id":"141","meta":{"profile":["http://hl7.org/fhir/StructureDefinition/daf-medication"]},"code":{"text":"Prednisone/Deltasone"}}},{"resource":{"resourceType":"MedicationStatement","id":"142","meta":{"profile":["http://hl7.org/fhir/StructureDefinition/daf-medicationstatement"]},"identifier":[{"use":"official","value":"E33C013D-49F4-4BD3-9390-476BCC49F0AB","assigner":{"display":"-UnspecifiedPlacerId"}},{"use":"official","value":"76C0802E-D581-4456-821F-0123C94B2DB9","assigner":{"display":"-UnspecifiedFillerId"}}],"status":"completed","medicationReference":{"reference":"Medication/143","display":"Lipitor"},"effectivePeriod":{"start":"2014-03-20T21:00:00+00:00","end":"2014-04-19T20:59:00+00:00"},"subject":{"reference":"Patient/2","display":"Madigan Test, Test Madigan, MADIGAN TEST, Madigan TEST"},"taken":"unk","dosage":[{"doseQuantity":{"value":20,"unit":"MG","system":"http://unitsofmeasure.org/ucum.html"}}]}},{"resource":{"resourceType":"Medication","id":"143","meta":{"profile":["http://hl7.org/fhir/StructureDefinition/daf-medication"]},"code":{"text":"Lipitor"}}},{"resource":{"resourceType":"MedicationRequest","id":"144","meta":{"profile":["http://hl7.org/fhir/StructureDefinition/daf-medicationRequest"]},"identifier":[{"use":"official","value":"29297061-2C62-49FA-AEDA-2678D8475C46","assigner":{"display":"-UnspecifiedPlacerId"}}],"status":"completed","intent":"instance-order","medicationReference":{"reference":"Medication/145","display":"Lipitor"},"subject":{"reference":"Patient/2","display":"Madigan Test, Test Madigan, MADIGAN TEST, Madigan TEST"},"requester":{"agent":{"reference":"Practitioner/45","display":"Heather Madigan"}}}},{"resource":{"resourceType":"Medication","id":"145","meta":{"profile":["http://hl7.org/fhir/StructureDefinition/daf-medication"]},"code":{"text":"Lipitor"}}},{"resource":{"resourceType":"MedicationDispense","id":"146","meta":{"profile":["http://hl7.org/fhir/StructureDefinition/daf-medicationdispense"]},"status":"completed","medicationReference":{"reference":"Medication/147","display":"Lipitor"},"subject":{"reference":"Patient/2","display":"Madigan Test, Test Madigan, MADIGAN TEST, Madigan TEST"}}},{"resource":{"resourceType":"Medication","id":"147","meta":{"profile":["http://hl7.org/fhir/StructureDefinition/daf-medication"]},"code":{"text":"Lipitor"}}},{"resource":{"resourceType":"MedicationStatement","id":"148","meta":{"profile":["http://hl7.org/fhir/StructureDefinition/daf-medicationstatement"]},"identifier":[{"use":"official","value":"1AAA650E-F653-4E0C-886A-8D46E19DA059","assigner":{"display":"-UnspecifiedPlacerId"}},{"use":"official","value":"53D799DF-E61D-4273-9FDE-09B60DE82393","assigner":{"display":"-UnspecifiedFillerId"}}],"status":"completed","medicationReference":{"reference":"Medication/149","display":"Non-Formulary Medication"},"effectivePeriod":{"start":"2014-03-20T11:45:00+00:00","end":"2014-04-19T11:44:00+00:00"},"subject":{"reference":"Patient/2","display":"Madigan Test, Test Madigan, MADIGAN TEST, Madigan TEST"},"taken":"unk","dosage":[{"doseQuantity":{"value":1,"unit":"1","system":"http://unitsofmeasure.org/ucum.html"}}]}},{"resource":{"resourceType":"Medication","id":"149","meta":{"profile":["http://hl7.org/fhir/StructureDefinition/daf-medication"]},"code":{"text":"Non-Formulary Medication"}}},{"resource":{"resourceType":"MedicationRequest","id":"150","meta":{"profile":["http://hl7.org/fhir/StructureDefinition/daf-medicationRequest"]},"identifier":[{"use":"official","value":"1AE25033-AF8B-4BEA-A0F2-F2BFB004CEAE","assigner":{"display":"-UnspecifiedPlacerId"}}],"status":"completed","intent":"instance-order","medicationReference":{"reference":"Medication/151","display":"Non-Formulary Medication"},"subject":{"reference":"Patient/2","display":"Madigan Test, Test Madigan, MADIGAN TEST, Madigan TEST"},"requester":{"agent":{"reference":"Practitioner/45","display":"Heather Madigan"}}}},{"resource":{"resourceType":"Medication","id":"151","meta":{"profile":["http://hl7.org/fhir/StructureDefinition/daf-medication"]},"code":{"text":"Non-Formulary Medication"}}},{"resource":{"resourceType":"MedicationDispense","id":"152","meta":{"profile":["http://hl7.org/fhir/StructureDefinition/daf-medicationdispense"]},"status":"completed","medicationReference":{"reference":"Medication/153","display":"Non-Formulary Medication"},"subject":{"reference":"Patient/2","display":"Madigan Test, Test Madigan, MADIGAN TEST, Madigan TEST"}}},{"resource":{"resourceType":"Medication","id":"153","meta":{"profile":["http://hl7.org/fhir/StructureDefinition/daf-medication"]},"code":{"text":"Non-Formulary Medication"}}},{"resource":{"resourceType":"MedicationStatement","id":"154","meta":{"profile":["http://hl7.org/fhir/StructureDefinition/daf-medicationstatement"]},"identifier":[{"use":"official","system":"urn:oid:2.16.840.1.113883.4.516","value":"1348A456-626D-495D-B6C3-126B79CD7A06","assigner":{"display":"SHFGW-PlacerId"}},{"use":"official","system":"urn:oid:2.16.840.1.113883.4.516","value":"777C70E4-B12B-431C-83A7-A9DD8658EA43","assigner":{"display":"SHFGW-FillerId"}}],"status":"completed","medicationReference":{"reference":"Medication/155","display":"Nexium Delayed-Release Capsules(Esomeprazole Magnesium Trihydr) 40 MG CAPSULE Total Dose: 40 MG"},"effectivePeriod":{"start":"1840-12-31T00:00:00+00:00","end":"2014-04-09T00:00:00+00:00"},"subject":{"reference":"Patient/2","display":"Madigan Test, Test Madigan, MADIGAN TEST, Madigan TEST"},"taken":"unk","dosage":[{"doseQuantity":{"value":40,"unit":"MG","system":"http://unitsofmeasure.org/ucum.html"}}]}},{"resource":{"resourceType":"Medication","id":"155","meta":{"profile":["http://hl7.org/fhir/StructureDefinition/daf-medication"]},"code":{"coding":[{"system":"urn:oid:2.16.840.1.113883.6.69","code":"00186504031","display":"Nexium Delayed-Release Capsules(Esomeprazole Magnesium Trihydr) 40 MG CAPSULE Total Dose: 40 MG"},{"system":"urn:oid:2.16.840.1.113883.6.69","code":"00186504031","display":"Nexium Delayed-Release Capsules(Esomeprazole Magnesium Trihydr) 40 MG CAPSULE Total Dose: 40 MG"}],"text":"Nexium Delayed-Release Capsules(Esomeprazole Magnesium Trihydr) 40 MG CAPSULE Total Dose: 40 MG"}}},{"resource":{"resourceType":"MedicationRequest","id":"156","meta":{"profile":["http://hl7.org/fhir/StructureDefinition/daf-medicationRequest"]},"identifier":[{"use":"official","system":"urn:oid:2.16.840.1.113883.4.516","value":"1348A456-626D-495D-B6C3-126B79CD7A06","assigner":{"display":"SHFGW-PlacerId"}}],"status":"completed","intent":"instance-order","medicationReference":{"reference":"Medication/155","display":"Nexium Delayed-Release Capsules(Esomeprazole Magnesium Trihydr) 40 MG CAPSULE Total Dose: 40 MG"},"subject":{"reference":"Patient/2","display":"Madigan Test, Test Madigan, MADIGAN TEST, Madigan TEST"}}},{"resource":{"resourceType":"MedicationStatement","id":"158","meta":{"profile":["http://hl7.org/fhir/StructureDefinition/daf-medicationstatement"]},"identifier":[{"use":"official","value":"1022799E-0BCE-4068-8ABE-189AC3136801","assigner":{"display":"-UnspecifiedPlacerId"}},{"use":"official","value":"0CDDDB79-E4E6-42ED-B6E5-678C498D1B30","assigner":{"display":"-UnspecifiedFillerId"}}],"status":"completed","medicationReference":{"reference":"Medication/159","display":"Albuterol 0.5%"},"effectivePeriod":{"start":"2014-03-20T12:30:00+00:00","end":"2014-04-19T12:29:00+00:00"},"subject":{"reference":"Patient/2","display":"Madigan Test, Test Madigan, MADIGAN TEST, Madigan TEST"},"taken":"unk","dosage":[{"timing":{"repeat":{"period":2,"periodUnit":"h"}},"doseQuantity":{"value":2.5,"unit":"MG","system":"http://unitsofmeasure.org/ucum.html"}}]}},{"resource":{"resourceType":"Medication","id":"159","meta":{"profile":["http://hl7.org/fhir/StructureDefinition/daf-medication"]},"code":{"text":"Albuterol 0.5%"}}},{"resource":{"resourceType":"MedicationRequest","id":"160","meta":{"profile":["http://hl7.org/fhir/StructureDefinition/daf-medicationRequest"]},"identifier":[{"use":"official","value":"B5878D0C-5069-4A56-A9E4-6144B610A540","assigner":{"display":"-UnspecifiedPlacerId"}}],"status":"completed","intent":"instance-order","medicationReference":{"reference":"Medication/161","display":"Albuterol 0.5%"},"subject":{"reference":"Patient/2","display":"Madigan Test, Test Madigan, MADIGAN TEST, Madigan TEST"},"requester":{"agent":{"reference":"Practitioner/45","display":"Heather Madigan"}}}},{"resource":{"resourceType":"Medication","id":"161","meta":{"profile":["http://hl7.org/fhir/StructureDefinition/daf-medication"]},"code":{"text":"Albuterol 0.5%"}}},{"resource":{"resourceType":"MedicationDispense","id":"162","meta":{"profile":["http://hl7.org/fhir/StructureDefinition/daf-medicationdispense"]},"status":"completed","medicationReference":{"reference":"Medication/163","display":"Albuterol 0.5%"},"subject":{"reference":"Patient/2","display":"Madigan Test, Test Madigan, MADIGAN TEST, Madigan TEST"}}},{"resource":{"resourceType":"Medication","id":"163","meta":{"profile":["http://hl7.org/fhir/StructureDefinition/daf-medication"]},"code":{"text":"Albuterol 0.5%"}}},{"resource":{"resourceType":"MedicationStatement","id":"164","meta":{"profile":["http://hl7.org/fhir/StructureDefinition/daf-medicationstatement"]},"identifier":[{"use":"official","system":"urn:oid:999.1.3.6.1.4.1.22812.3.5868002.3","value":"103979C8-A096-45D0-A200-8C1EB917EE0B","assigner":{"display":"AMCFPDOC-PlacerId"}},{"use":"official","system":"urn:oid:999.1.3.6.1.4.1.22812.3.5868002.3","value":"9B9CBA76-E54D-4769-B22A-A4338A3F8CB3","assigner":{"display":"AMCFPDOC-FillerId"}}],"status":"completed","medicationReference":{"reference":"Medication/168","display":"Medication not documented"},"effectivePeriod":{"start":"1840-12-31T00:00:00+00:00"},"informationSource":{"reference":"Practitioner/165","display":"TERRY VANDELINDER"},"subject":{"reference":"Patient/2","display":"Madigan Test, Test Madigan, MADIGAN TEST, Madigan TEST"},"taken":"unk"}},{"resource":{"resourceType":"Practitioner","id":"165","meta":{"profile":["http://hl7.org/fhir/StructureDefinition/daf-pract"]},"identifier":[{"use":"official","system":"urn:oid:2.16.840.1.113883.3.86.3.1","value":"TERRYVANDELINDER"}],"name":[{"use":"usual","family":"VANDELINDER","given":["TERRY"]}]}},{"resource":{"resourceType":"PractitionerRole","id":"166","practitioner":{"reference":"Practitioner/165","display":"TERRY VANDELINDER"},"organization":{"reference":"Organization/167","display":"Albany Med Center Faculty Practices"}}},{"resource":{"resourceType":"Organization","id":"167","meta":{"profile":["http://hl7.org/fhir/StructureDefinition/daf-organization"]},"identifier":[{"use":"official","system":"urn:oid:2.16.840.1.113883.4.319","value":"AMCFPDOC"}],"name":"Albany Med Center Faculty Practices"}},{"resource":{"resourceType":"Medication","id":"168","meta":{"profile":["http://hl7.org/fhir/StructureDefinition/daf-medication"]},"code":{"text":"Medication not documented"}}},{"resource":{"resourceType":"MedicationRequest","id":"169","meta":{"profile":["http://hl7.org/fhir/StructureDefinition/daf-medicationRequest"]},"identifier":[{"use":"official","system":"urn:oid:999.1.3.6.1.4.1.22812.3.5868002.3","value":"103979C8-A096-45D0-A200-8C1EB917EE0B","assigner":{"display":"AMCFPDOC-PlacerId"}}],"status":"completed","intent":"instance-order","medicationReference":{"reference":"Medication/170","display":"Medication not documented"},"subject":{"reference":"Patient/2","display":"Madigan Test, Test Madigan, MADIGAN TEST, Madigan TEST"}}},{"resource":{"resourceType":"Medication","id":"170","meta":{"profile":["http://hl7.org/fhir/StructureDefinition/daf-medication"]},"code":{"text":"Medication not documented"}}},{"resource":{"resourceType":"MedicationStatement","id":"171","meta":{"profile":["http://hl7.org/fhir/StructureDefinition/daf-medicationstatement"]},"identifier":[{"use":"official","value":"0A791ADD-E112-440F-A5A3-1E24809F7AFC","assigner":{"display":"-UnspecifiedPlacerId"}},{"use":"official","value":"E7919B79-8A16-4F75-A95C-32E02AB0CF77","assigner":{"display":"-UnspecifiedFillerId"}}],"status":"completed","medicationReference":{"reference":"Medication/172","display":"MAALOX 30ml UD-CUP/RULOX"},"effectivePeriod":{"start":"2014-03-20T12:30:00+00:00","end":"2014-04-19T12:29:00+00:00"},"subject":{"reference":"Patient/2","display":"Madigan Test, Test Madigan, MADIGAN TEST, Madigan TEST"},"taken":"unk","dosage":[{"doseQuantity":{"value":30,"unit":"ML","system":"http://unitsofmeasure.org/ucum.html"}}]}},{"resource":{"resourceType":"Medication","id":"172","meta":{"profile":["http://hl7.org/fhir/StructureDefinition/daf-medication"]},"code":{"text":"MAALOX 30ml UD-CUP/RULOX"}}},{"resource":{"resourceType":"MedicationRequest","id":"173","meta":{"profile":["http://hl7.org/fhir/StructureDefinition/daf-medicationRequest"]},"identifier":[{"use":"official","value":"B26303FC-0E67-4667-A712-3B51FAF86E12","assigner":{"display":"-UnspecifiedPlacerId"}}],"status":"completed","intent":"instance-order","medicationReference":{"reference":"Medication/174","display":"MAALOX 30ml UD-CUP/RULOX"},"subject":{"reference":"Patient/2","display":"Madigan Test, Test Madigan, MADIGAN TEST, Madigan TEST"},"requester":{"agent":{"reference":"Practitioner/45","display":"Heather Madigan"}}}},{"resource":{"resourceType":"Medication","id":"174","meta":{"profile":["http://hl7.org/fhir/StructureDefinition/daf-medication"]},"code":{"text":"MAALOX 30ml UD-CUP/RULOX"}}},{"resource":{"resourceType":"MedicationDispense","id":"175","meta":{"profile":["http://hl7.org/fhir/StructureDefinition/daf-medicationdispense"]},"status":"completed","medicationReference":{"reference":"Medication/176","display":"MAALOX 30ml UD-CUP/RULOX"},"subject":{"reference":"Patient/2","display":"Madigan Test, Test Madigan, MADIGAN TEST, Madigan TEST"}}},{"resource":{"resourceType":"Medication","id":"176","meta":{"profile":["http://hl7.org/fhir/StructureDefinition/daf-medication"]},"code":{"text":"MAALOX 30ml UD-CUP/RULOX"}}},{"resource":{"resourceType":"MedicationStatement","id":"177","meta":{"profile":["http://hl7.org/fhir/StructureDefinition/daf-medicationstatement"]},"identifier":[{"use":"official","value":"7FF8C006-2C7E-47CA-9DDE-4DA8D99EE962","assigner":{"display":"-UnspecifiedPlacerId"}},{"use":"official","value":"DE4C97FD-D376-40CF-AA06-87420760F8A2","assigner":{"display":"-UnspecifiedFillerId"}}],"status":"completed","medicationReference":{"reference":"Medication/178","display":"Zithromax"},"effectivePeriod":{"start":"2014-03-20T12:30:00+00:00","end":"2014-03-20T12:31:00+00:00"},"subject":{"reference":"Patient/2","display":"Madigan Test, Test Madigan, MADIGAN TEST, Madigan TEST"},"taken":"unk","dosage":[{"doseQuantity":{"value":500,"unit":"MG","system":"http://unitsofmeasure.org/ucum.html"}}]}},{"resource":{"resourceType":"Medication","id":"178","meta":{"profile":["http://hl7.org/fhir/StructureDefinition/daf-medication"]},"code":{"text":"Zithromax"}}},{"resource":{"resourceType":"MedicationRequest","id":"179","meta":{"profile":["http://hl7.org/fhir/StructureDefinition/daf-medicationRequest"]},"identifier":[{"use":"official","value":"644AC9EF-70B6-4435-84D1-8A576BE1B13C","assigner":{"display":"-UnspecifiedPlacerId"}}],"status":"completed","intent":"instance-order","medicationReference":{"reference":"Medication/180","display":"Zithromax"},"subject":{"reference":"Patient/2","display":"Madigan Test, Test Madigan, MADIGAN TEST, Madigan TEST"},"requester":{"agent":{"reference":"Practitioner/45","display":"Heather Madigan"}}}},{"resource":{"resourceType":"Medication","id":"180","meta":{"profile":["http://hl7.org/fhir/StructureDefinition/daf-medication"]},"code":{"text":"Zithromax"}}},{"resource":{"resourceType":"MedicationDispense","id":"181","meta":{"profile":["http://hl7.org/fhir/StructureDefinition/daf-medicationdispense"]},"status":"completed","medicationReference":{"reference":"Medication/182","display":"Zithromax"},"subject":{"reference":"Patient/2","display":"Madigan Test, Test Madigan, MADIGAN TEST, Madigan TEST"}}},{"resource":{"resourceType":"Medication","id":"182","meta":{"profile":["http://hl7.org/fhir/StructureDefinition/daf-medication"]},"code":{"text":"Zithromax"}}},{"resource":{"resourceType":"MedicationStatement","id":"183","meta":{"profile":["http://hl7.org/fhir/StructureDefinition/daf-medicationstatement"]},"identifier":[{"use":"official","value":"36B5F841-DB3F-47DF-A2E7-A971E671F70A","assigner":{"display":"-UnspecifiedPlacerId"}},{"use":"official","value":"4143BBBA-324A-48EE-88BD-F8A9A6FC1C79","assigner":{"display":"-UnspecifiedFillerId"}}],"status":"completed","medicationReference":{"reference":"Medication/184","display":"Zofran Odt"},"effectivePeriod":{"start":"2014-03-20T12:30:00+00:00","end":"2014-04-19T12:29:00+00:00"},"subject":{"reference":"Patient/2","display":"Madigan Test, Test Madigan, MADIGAN TEST, Madigan TEST"},"taken":"unk","dosage":[{"doseQuantity":{"value":4,"unit":"MG","system":"http://unitsofmeasure.org/ucum.html"}}]}},{"resource":{"resourceType":"Medication","id":"184","meta":{"profile":["http://hl7.org/fhir/StructureDefinition/daf-medication"]},"code":{"text":"Zofran Odt"}}},{"resource":{"resourceType":"MedicationRequest","id":"185","meta":{"profile":["http://hl7.org/fhir/StructureDefinition/daf-medicationRequest"]},"identifier":[{"use":"official","value":"3B28631E-D410-4A13-BB13-52703BF337EA","assigner":{"display":"-UnspecifiedPlacerId"}}],"status":"completed","intent":"instance-order","medicationReference":{"reference":"Medication/186","display":"Zofran Odt"},"subject":{"reference":"Patient/2","display":"Madigan Test, Test Madigan, MADIGAN TEST, Madigan TEST"},"requester":{"agent":{"reference":"Practitioner/45","display":"Heather Madigan"}}}},{"resource":{"resourceType":"Medication","id":"186","meta":{"profile":["http://hl7.org/fhir/StructureDefinition/daf-medication"]},"code":{"text":"Zofran Odt"}}},{"resource":{"resourceType":"MedicationDispense","id":"187","meta":{"profile":["http://hl7.org/fhir/StructureDefinition/daf-medicationdispense"]},"status":"completed","medicationReference":{"reference":"Medication/188","display":"Zofran Odt"},"subject":{"reference":"Patient/2","display":"Madigan Test, Test Madigan, MADIGAN TEST, Madigan TEST"}}},{"resource":{"resourceType":"Medication","id":"188","meta":{"profile":["http://hl7.org/fhir/StructureDefinition/daf-medication"]},"code":{"text":"Zofran Odt"}}},{"resource":{"resourceType":"MedicationStatement","id":"189","meta":{"profile":["http://hl7.org/fhir/StructureDefinition/daf-medicationstatement"]},"identifier":[{"use":"official","system":"urn:oid:2.16.840.1.113883.4.516","value":"B13A6C50-166F-4426-A1A0-6DD142A45E07","assigner":{"display":"SHFGW-PlacerId"}},{"use":"official","system":"urn:oid:2.16.840.1.113883.4.516","value":"EE507799-A40E-4893-9647-CAC7B9786883","assigner":{"display":"SHFGW-FillerId"}}],"status":"completed","medicationReference":{"reference":"Medication/190","display":"Furosemide(FUROSEMIDE) 20 MG TABLET Total Dose: 10 MG"},"effectivePeriod":{"start":"1840-12-31T00:00:00+00:00","end":"2014-04-09T00:00:00+00:00"},"subject":{"reference":"Patient/2","display":"Madigan Test, Test Madigan, MADIGAN TEST, Madigan TEST"},"taken":"unk","dosage":[{"doseQuantity":{"value":10,"unit":"MG","system":"http://unitsofmeasure.org/ucum.html"}}]}},{"resource":{"resourceType":"Medication","id":"190","meta":{"profile":["http://hl7.org/fhir/StructureDefinition/daf-medication"]},"code":{"coding":[{"system":"urn:oid:2.16.840.1.113883.6.69","code":"67544024492","display":"Furosemide(FUROSEMIDE) 20 MG TABLET Total Dose: 10 MG"},{"system":"urn:oid:2.16.840.1.113883.6.69","code":"67544024492","display":"Furosemide(FUROSEMIDE) 20 MG TABLET Total Dose: 10 MG"}],"text":"Furosemide(FUROSEMIDE) 20 MG TABLET Total Dose: 10 MG"}}},{"resource":{"resourceType":"MedicationRequest","id":"191","meta":{"profile":["http://hl7.org/fhir/StructureDefinition/daf-medicationRequest"]},"identifier":[{"use":"official","system":"urn:oid:2.16.840.1.113883.4.516","value":"B13A6C50-166F-4426-A1A0-6DD142A45E07","assigner":{"display":"SHFGW-PlacerId"}}],"status":"completed","intent":"instance-order","medicationReference":{"reference":"Medication/190","display":"Furosemide(FUROSEMIDE) 20 MG TABLET Total Dose: 10 MG"},"subject":{"reference":"Patient/2","display":"Madigan Test, Test Madigan, MADIGAN TEST, Madigan TEST"}}},{"resource":{"resourceType":"MedicationStatement","id":"193","meta":{"profile":["http://hl7.org/fhir/StructureDefinition/daf-medicationstatement"]},"identifier":[{"use":"official","system":"urn:oid:2.16.840.1.113883.4.516","value":"9F6755A5-F912-4F8D-AADD-7E9B7D254978","assigner":{"display":"SHFGW-PlacerId"}},{"use":"official","system":"urn:oid:2.16.840.1.113883.4.516","value":"9DD3A926-71BA-445D-8182-6E02E4AA6C76","assigner":{"display":"SHFGW-FillerId"}}],"status":"completed","medicationReference":{"reference":"Medication/133","display":"Lisinopril 5MG Tab(LISINOPRIL) 5 MG TABLET Total Dose: 5 MG"},"effectivePeriod":{"start":"1840-12-31T00:00:00+00:00","end":"2014-04-09T00:00:00+00:00"},"subject":{"reference":"Patient/2","display":"Madigan Test, Test Madigan, MADIGAN TEST, Madigan TEST"},"taken":"unk","dosage":[{"doseQuantity":{"value":5,"unit":"MG","system":"http://unitsofmeasure.org/ucum.html"}}]}},{"resource":{"resourceType":"MedicationRequest","id":"195","meta":{"profile":["http://hl7.org/fhir/StructureDefinition/daf-medicationRequest"]},"identifier":[{"use":"official","system":"urn:oid:2.16.840.1.113883.4.516","value":"9F6755A5-F912-4F8D-AADD-7E9B7D254978","assigner":{"display":"SHFGW-PlacerId"}}],"status":"completed","intent":"instance-order","medicationReference":{"reference":"Medication/133","display":"Lisinopril 5MG Tab(LISINOPRIL) 5 MG TABLET Total Dose: 5 MG"},"subject":{"reference":"Patient/2","display":"Madigan Test, Test Madigan, MADIGAN TEST, Madigan TEST"}}},{"resource":{"resourceType":"MedicationStatement","id":"197","meta":{"profile":["http://hl7.org/fhir/StructureDefinition/daf-medicationstatement"]},"identifier":[{"use":"official","value":"168ED353-87A2-4258-A4ED-F80352615241","assigner":{"display":"-UnspecifiedPlacerId"}},{"use":"official","value":"AC5A1966-9397-411D-9C0D-788D4C017616","assigner":{"display":"-UnspecifiedFillerId"}}],"status":"completed","medicationReference":{"reference":"Medication/198","display":"Milk Of Magnesia 30 Ml Udc"},"effectivePeriod":{"start":"2014-03-20T12:30:00+00:00","end":"2014-04-19T12:29:00+00:00"},"subject":{"reference":"Patient/2","display":"Madigan Test, Test Madigan, MADIGAN TEST, Madigan TEST"},"taken":"unk","dosage":[{"doseQuantity":{"value":30,"unit":"ML","system":"http://unitsofmeasure.org/ucum.html"}}]}},{"resource":{"resourceType":"Medication","id":"198","meta":{"profile":["http://hl7.org/fhir/StructureDefinition/daf-medication"]},"code":{"text":"Milk Of Magnesia 30 Ml Udc"}}},{"resource":{"resourceType":"MedicationRequest","id":"199","meta":{"profile":["http://hl7.org/fhir/StructureDefinition/daf-medicationRequest"]},"identifier":[{"use":"official","value":"E98BF72B-0C88-466C-AC17-D33FFA09F625","assigner":{"display":"-UnspecifiedPlacerId"}}],"status":"completed","intent":"instance-order","medicationReference":{"reference":"Medication/200","display":"Milk Of Magnesia 30 Ml Udc"},"subject":{"reference":"Patient/2","display":"Madigan Test, Test Madigan, MADIGAN TEST, Madigan TEST"},"requester":{"agent":{"reference":"Practitioner/45","display":"Heather Madigan"}}}},{"resource":{"resourceType":"Medication","id":"200","meta":{"profile":["http://hl7.org/fhir/StructureDefinition/daf-medication"]},"code":{"text":"Milk Of Magnesia 30 Ml Udc"}}},{"resource":{"resourceType":"MedicationDispense","id":"201","meta":{"profile":["http://hl7.org/fhir/StructureDefinition/daf-medicationdispense"]},"status":"completed","medicationReference":{"reference":"Medication/202","display":"Milk Of Magnesia 30 Ml Udc"},"subject":{"reference":"Patient/2","display":"Madigan Test, Test Madigan, MADIGAN TEST, Madigan TEST"}}},{"resource":{"resourceType":"Medication","id":"202","meta":{"profile":["http://hl7.org/fhir/StructureDefinition/daf-medication"]},"code":{"text":"Milk Of Magnesia 30 Ml Udc"}}},{"resource":{"resourceType":"MedicationStatement","id":"203","meta":{"profile":["http://hl7.org/fhir/StructureDefinition/daf-medicationstatement"]},"identifier":[{"use":"official","value":"3DE78130-8E3F-4A47-84FB-08E5EFF750AC","assigner":{"display":"-UnspecifiedPlacerId"}},{"use":"official","value":"EE5E5A37-2C80-4E22-967E-9A50D107E4B5","assigner":{"display":"-UnspecifiedFillerId"}}],"status":"completed","medicationReference":{"reference":"Medication/204","display":"COLACE"},"effectivePeriod":{"start":"2014-03-20T11:06:00+00:00","end":"2014-04-19T11:05:00+00:00"},"subject":{"reference":"Patient/2","display":"Madigan Test, Test Madigan, MADIGAN TEST, Madigan TEST"},"taken":"unk","dosage":[{"doseQuantity":{"value":100,"unit":"MG","system":"http://unitsofmeasure.org/ucum.html"}}]}},{"resource":{"resourceType":"Medication","id":"204","meta":{"profile":["http://hl7.org/fhir/StructureDefinition/daf-medication"]},"code":{"text":"COLACE"}}},{"resource":{"resourceType":"MedicationRequest","id":"205","meta":{"profile":["http://hl7.org/fhir/StructureDefinition/daf-medicationRequest"]},"identifier":[{"use":"official","value":"96FFCCCF-E935-4779-9C7C-8B6BF3977F8D","assigner":{"display":"-UnspecifiedPlacerId"}}],"status":"completed","intent":"instance-order","medicationReference":{"reference":"Medication/206","display":"COLACE"},"subject":{"reference":"Patient/2","display":"Madigan Test, Test Madigan, MADIGAN TEST, Madigan TEST"},"requester":{"agent":{"reference":"Practitioner/45","display":"Heather Madigan"}}}},{"resource":{"resourceType":"Medication","id":"206","meta":{"profile":["http://hl7.org/fhir/StructureDefinition/daf-medication"]},"code":{"text":"COLACE"}}},{"resource":{"resourceType":"MedicationDispense","id":"207","meta":{"profile":["http://hl7.org/fhir/StructureDefinition/daf-medicationdispense"]},"status":"completed","medicationReference":{"reference":"Medication/208","display":"COLACE"},"subject":{"reference":"Patient/2","display":"Madigan Test, Test Madigan, MADIGAN TEST, Madigan TEST"}}},{"resource":{"resourceType":"Medication","id":"208","meta":{"profile":["http://hl7.org/fhir/StructureDefinition/daf-medication"]},"code":{"text":"COLACE"}}},{"resource":{"resourceType":"MedicationStatement","id":"209","meta":{"profile":["http://hl7.org/fhir/StructureDefinition/daf-medicationstatement"]},"identifier":[{"use":"official","system":"urn:oid:2.16.840.1.113883.4.516","value":"D9B90AB6-5103-4F6E-8E93-746E190DDF53","assigner":{"display":"SHFGW-PlacerId"}},{"use":"official","system":"urn:oid:2.16.840.1.113883.4.516","value":"5BB32FEB-52CF-4CBA-91BF-54F4679E94E1","assigner":{"display":"SHFGW-FillerId"}}],"status":"completed","medicationReference":{"reference":"Medication/210","display":"Azilect(Rasagiline Mesylate) 1 MG TABLET Total Dose: 1 MG"},"effectivePeriod":{"start":"1840-12-31T00:00:00+00:00","end":"2014-04-09T00:00:00+00:00"},"subject":{"reference":"Patient/2","display":"Madigan Test, Test Madigan, MADIGAN TEST, Madigan TEST"},"taken":"unk","dosage":[{"doseQuantity":{"value":1,"unit":"MG","system":"http://unitsofmeasure.org/ucum.html"}}]}},{"resource":{"resourceType":"Medication","id":"210","meta":{"profile":["http://hl7.org/fhir/StructureDefinition/daf-medication"]},"code":{"coding":[{"system":"urn:oid:2.16.840.1.113883.6.69","code":"68546022956","display":"Azilect(Rasagiline Mesylate) 1 MG TABLET Total Dose: 1 MG"},{"system":"urn:oid:2.16.840.1.113883.6.69","code":"68546022956","display":"Azilect(Rasagiline Mesylate) 1 MG TABLET Total Dose: 1 MG"}],"text":"Azilect(Rasagiline Mesylate) 1 MG TABLET Total Dose: 1 MG"}}},{"resource":{"resourceType":"MedicationRequest","id":"211","meta":{"profile":["http://hl7.org/fhir/StructureDefinition/daf-medicationRequest"]},"identifier":[{"use":"official","system":"urn:oid:2.16.840.1.113883.4.516","value":"D9B90AB6-5103-4F6E-8E93-746E190DDF53","assigner":{"display":"SHFGW-PlacerId"}}],"status":"completed","intent":"instance-order","medicationReference":{"reference":"Medication/210","display":"Azilect(Rasagiline Mesylate) 1 MG TABLET Total Dose: 1 MG"},"subject":{"reference":"Patient/2","display":"Madigan Test, Test Madigan, MADIGAN TEST, Madigan TEST"}}},{"resource":{"resourceType":"MedicationStatement","id":"213","meta":{"profile":["http://hl7.org/fhir/StructureDefinition/daf-medicationstatement"]},"identifier":[{"use":"official","value":"ABF5B76A-96E6-46D5-BC7D-69C6EB6E8660","assigner":{"display":"-UnspecifiedPlacerId"}},{"use":"official","value":"9CA8C9EC-1D11-4608-86F1-77E725860509","assigner":{"display":"-UnspecifiedFillerId"}}],"status":"completed","medicationReference":{"reference":"Medication/214","display":"Lasix"},"effectivePeriod":{"start":"2014-04-09T09:45:00+00:00","end":"2014-04-09T09:46:00+00:00"},"subject":{"reference":"Patient/2","display":"Madigan Test, Test Madigan, MADIGAN TEST, Madigan TEST"},"taken":"unk","dosage":[{"doseQuantity":{"value":10,"unit":"MG","system":"http://unitsofmeasure.org/ucum.html"}}]}},{"resource":{"resourceType":"Medication","id":"214","meta":{"profile":["http://hl7.org/fhir/StructureDefinition/daf-medication"]},"code":{"text":"Lasix"}}},{"resource":{"resourceType":"MedicationRequest","id":"215","meta":{"profile":["http://hl7.org/fhir/StructureDefinition/daf-medicationRequest"]},"identifier":[{"use":"official","value":"C49FFAAD-F3DB-4B92-A697-34E864217E1F","assigner":{"display":"-UnspecifiedPlacerId"}}],"status":"completed","intent":"instance-order","medicationReference":{"reference":"Medication/216","display":"Lasix"},"subject":{"reference":"Patient/2","display":"Madigan Test, Test Madigan, MADIGAN TEST, Madigan TEST"},"requester":{"agent":{"reference":"Practitioner/34","display":"CPOE SIP TEST PROVIDER"}}}},{"resource":{"resourceType":"Medication","id":"216","meta":{"profile":["http://hl7.org/fhir/StructureDefinition/daf-medication"]},"code":{"text":"Lasix"}}},{"resource":{"resourceType":"MedicationDispense","id":"217","meta":{"profile":["http://hl7.org/fhir/StructureDefinition/daf-medicationdispense"]},"status":"completed","medicationReference":{"reference":"Medication/218","display":"Lasix"},"subject":{"reference":"Patient/2","display":"Madigan Test, Test Madigan, MADIGAN TEST, Madigan TEST"}}},{"resource":{"resourceType":"Medication","id":"218","meta":{"profile":["http://hl7.org/fhir/StructureDefinition/daf-medication"]},"code":{"text":"Lasix"}}},{"resource":{"resourceType":"Observation","id":"219","status":"final","code":{"coding":[{"system":"http://loinc.org","code":"8302-2","display":"Height"},{"system":"urn:oid:2.16.840.1.113883.3.86.3.1","code":"8302-2","display":"Height"}],"text":"Height"},"subject":{"reference":"Patient/2","display":"Madigan Test, Test Madigan, MADIGAN TEST, Madigan TEST"},"effectivePeriod":{"start":"2014-04-09T09:33:57+00:00"},"valueQuantity":{"value":177.8,"unit":"cm"}}},{"resource":{"resourceType":"Observation","id":"220","status":"final","code":{"coding":[{"system":"http://loinc.org","code":"8302-2","display":"Height"},{"system":"urn:oid:2.16.840.1.113883.3.86.3.1","code":"8302-2","display":"Height"}],"text":"Height"},"subject":{"reference":"Patient/2","display":"Madigan Test, Test Madigan, MADIGAN TEST, Madigan TEST"},"effectivePeriod":{"start":"2014-04-09T09:42:27+00:00"},"valueQuantity":{"value":177.8,"unit":"cm"}}},{"resource":{"resourceType":"Observation","id":"221","status":"final","code":{"coding":[{"system":"http://loinc.org","code":"3141-9","display":"Weight"},{"system":"urn:oid:2.16.840.1.113883.3.86.3.1","code":"3141-9","display":"Weight"}],"text":"Weight"},"subject":{"reference":"Patient/2","display":"Madigan Test, Test Madigan, MADIGAN TEST, Madigan TEST"},"effectivePeriod":{"start":"2014-04-09T09:55:42+00:00"},"valueQuantity":{"value":63.616,"unit":"kg"}}},{"resource":{"resourceType":"Observation","id":"222","status":"final","code":{"coding":[{"system":"http://loinc.org","code":"3141-9","display":"Weight"},{"system":"urn:oid:2.16.840.1.113883.3.86.3.1","code":"3141-9","display":"Weight"}],"text":"Weight"},"subject":{"reference":"Patient/2","display":"Madigan Test, Test Madigan, MADIGAN TEST, Madigan TEST"},"effectivePeriod":{"start":"2014-04-09T09:34:07+00:00"},"valueQuantity":{"value":63.616,"unit":"kg"}}},{"resource":{"resourceType":"Observation","id":"223","status":"final","code":{"coding":[{"system":"http://loinc.org","code":"3141-9","display":"Weight"},{"system":"urn:oid:2.16.840.1.113883.3.86.3.1","code":"3141-9","display":"Weight"}],"text":"Weight"},"subject":{"reference":"Patient/2","display":"Madigan Test, Test Madigan, MADIGAN TEST, Madigan TEST"},"effectivePeriod":{"start":"2014-04-09T09:33:57+00:00"},"valueQuantity":{"value":63.616,"unit":"kg"}}},{"resource":{"resourceType":"Observation","id":"224","status":"final","code":{"coding":[{"system":"http://loinc.org","code":"3141-9","display":"Weight"},{"system":"urn:oid:2.16.840.1.113883.3.86.3.1","code":"3141-9","display":"Weight"}],"text":"Weight"},"subject":{"reference":"Patient/2","display":"Madigan Test, Test Madigan, MADIGAN TEST, Madigan TEST"},"effectivePeriod":{"start":"2014-04-09T09:35:07+00:00"},"valueQuantity":{"value":63.616,"unit":"kg"}}},{"resource":{"resourceType":"Observation","id":"225","status":"final","code":{"coding":[{"system":"http://loinc.org","code":"8302-2","display":"Height"},{"system":"urn:oid:2.16.840.1.113883.3.86.3.1","code":"8302-2","display":"Height"}],"text":"Height"},"subject":{"reference":"Patient/2","display":"Madigan Test, Test Madigan, MADIGAN TEST, Madigan TEST"},"effectivePeriod":{"start":"2014-04-09T09:55:42+00:00"},"valueQuantity":{"value":177.8,"unit":"cm"}}},{"resource":{"resourceType":"Observation","id":"226","status":"final","code":{"coding":[{"system":"http://loinc.org","code":"8302-2","display":"Height"},{"system":"urn:oid:2.16.840.1.113883.3.86.3.1","code":"8302-2","display":"Height"}],"text":"Height"},"subject":{"reference":"Patient/2","display":"Madigan Test, Test Madigan, MADIGAN TEST, Madigan TEST"},"effectivePeriod":{"start":"2014-04-09T09:42:07+00:00"},"valueQuantity":{"value":177.8,"unit":"cm"}}},{"resource":{"resourceType":"Observation","id":"227","status":"final","code":{"coding":[{"system":"http://loinc.org","code":"3141-9","display":"Weight"},{"system":"urn:oid:2.16.840.1.113883.3.86.3.1","code":"3141-9","display":"Weight"}],"text":"Weight"},"subject":{"reference":"Patient/2","display":"Madigan Test, Test Madigan, MADIGAN TEST, Madigan TEST"},"effectivePeriod":{"start":"2014-04-09T09:42:07+00:00"},"valueQuantity":{"value":63.616,"unit":"kg"}}},{"resource":{"resourceType":"Observation","id":"228","status":"final","code":{"coding":[{"system":"http://loinc.org","code":"8302-2","display":"Height"},{"system":"urn:oid:2.16.840.1.113883.3.86.3.1","code":"8302-2","display":"Height"}],"text":"Height"},"subject":{"reference":"Patient/2","display":"Madigan Test, Test Madigan, MADIGAN TEST, Madigan TEST"},"effectivePeriod":{"start":"2014-04-09T09:35:07+00:00"},"valueQuantity":{"value":177.8,"unit":"cm"}}},{"resource":{"resourceType":"Observation","id":"229","status":"final","code":{"coding":[{"system":"http://loinc.org","code":"8302-2","display":"Height"},{"system":"urn:oid:2.16.840.1.113883.3.86.3.1","code":"8302-2","display":"Height"}],"text":"Height"},"subject":{"reference":"Patient/2","display":"Madigan Test, Test Madigan, MADIGAN TEST, Madigan TEST"},"effectivePeriod":{"start":"2014-04-09T09:34:07+00:00"},"valueQuantity":{"value":177.8,"unit":"cm"}}},{"resource":{"resourceType":"Observation","id":"230","status":"final","code":{"coding":[{"system":"http://loinc.org","code":"3141-9","display":"Weight"},{"system":"urn:oid:2.16.840.1.113883.3.86.3.1","code":"3141-9","display":"Weight"}],"text":"Weight"},"subject":{"reference":"Patient/2","display":"Madigan Test, Test Madigan, MADIGAN TEST, Madigan TEST"},"effectivePeriod":{"start":"2014-04-09T09:42:27+00:00"},"valueQuantity":{"value":63.616,"unit":"kg"}}},{"resource":{"resourceType":"Observation","id":"231","status":"final","code":{"coding":[{"system":"http://loinc.org","code":"9279-1","display":"Respiratory Rate"}],"text":"ED.VSIRES Respirations:"},"subject":{"reference":"Patient/2","display":"Madigan Test, Test Madigan, MADIGAN TEST, Madigan TEST"},"effectivePeriod":{"start":"2014-04-09T09:28:00+00:00"},"valueQuantity":{"value":24,"unit":"/min"}}},{"resource":{"resourceType":"Observation","id":"232","status":"final","code":{"coding":[{"system":"http://loinc.org","code":"8302-2","display":"Height"},{"system":"urn:oid:2.16.840.1.113883.3.86.3.1","code":"8302-2","display":"Height"}],"text":"ED.HEIGHTI in"},"subject":{"reference":"Patient/2","display":"Madigan Test, Test Madigan, MADIGAN TEST, Madigan TEST"},"effectivePeriod":{"start":"2014-04-09T09:30:00+00:00"},"valueQuantity":{"value":10,"unit":"[in_us]"}}},{"resource":{"resourceType":"Observation","id":"233","status":"final","code":{"coding":[{"system":"http://loinc.org","code":"8310-5","display":"Body Temperature"}],"text":"ED.VSITEMP Temperature:"},"subject":{"reference":"Patient/2","display":"Madigan Test, Test Madigan, MADIGAN TEST, Madigan TEST"},"effectivePeriod":{"start":"2014-04-09T09:28:00+00:00"},"valueQuantity":{"value":99.8,"unit":"[degF]"}}},{"resource":{"resourceType":"Observation","id":"234","status":"final","code":{"coding":[{"system":"http://loinc.org","code":"8462-4","display":"BP Diastolic"},{"system":"urn:oid:2.16.840.1.113883.3.86.3.1","code":"8462-4","display":"BP Diastolic"}],"text":"BP.DIASTOLIC Diastolic Blood Pressure"},"subject":{"reference":"Patient/2","display":"Madigan Test, Test Madigan, MADIGAN TEST, Madigan TEST"},"effectivePeriod":{"start":"2014-04-09T09:28:00+00:00"},"valueQuantity":{"value":80,"unit":"mm[Hg]"}}},{"resource":{"resourceType":"Observation","id":"235","status":"final","code":{"coding":[{"system":"http://loinc.org","code":"8480-6","display":"BP Systolic"},{"system":"urn:oid:2.16.840.1.113883.3.86.3.1","code":"8480-6","display":"BP Systolic"}],"text":"BP.SYSTOLIC Systolic Blood Pressure"},"subject":{"reference":"Patient/2","display":"Madigan Test, Test Madigan, MADIGAN TEST, Madigan TEST"},"effectivePeriod":{"start":"2014-04-09T09:28:00+00:00"},"valueQuantity":{"value":120,"unit":"mm[Hg]"}}},{"resource":{"resourceType":"Observation","id":"236","status":"final","code":{"coding":[{"system":"http://loinc.org","code":"3141-9","display":"Weight"}],"text":"ED.WEIGHTL lbs"},"subject":{"reference":"Patient/2","display":"Madigan Test, Test Madigan, MADIGAN TEST, Madigan TEST"},"effectivePeriod":{"start":"2014-04-09T09:30:00+00:00"},"valueQuantity":{"value":140,"unit":"[lb_av]"}}},{"resource":{"resourceType":"Observation","id":"237","status":"final","code":{"coding":[{"system":"http://loinc.org","code":"8867-4","display":"Heart Rate/Pulse"}],"text":"ED.VSIP Pulse:"},"subject":{"reference":"Patient/2","display":"Madigan Test, Test Madigan, MADIGAN TEST, Madigan TEST"},"effectivePeriod":{"start":"2014-04-09T09:28:00+00:00"},"valueQuantity":{"value":101,"unit":"/min"}}},{"resource":{"resourceType":"Observation","id":"238","status":"final","code":{"coding":[{"system":"http://loinc.org","code":"2710-2","display":"O2%"}],"text":"ED.VSPO2 SpO2:"},"subject":{"reference":"Patient/2","display":"Madigan Test, Test Madigan, MADIGAN TEST, Madigan TEST"},"effectivePeriod":{"start":"2014-04-09T09:28:00+00:00"},"valueQuantity":{"value":98,"unit":"%"}}},{"resource":{"resourceType":"Observation","id":"239","status":"final","code":{"coding":[{"system":"http://loinc.org","code":"8302-2","display":"Height"},{"system":"urn:oid:2.16.840.1.113883.3.86.3.1","code":"8302-2","display":"Height"}],"text":"Height"},"subject":{"reference":"Patient/2","display":"Madigan Test, Test Madigan, MADIGAN TEST, Madigan TEST"},"effectivePeriod":{"start":"2014-03-26T15:10:25+00:00"},"valueQuantity":{"value":167.64,"unit":"cm"}}},{"resource":{"resourceType":"Observation","id":"240","status":"final","code":{"coding":[{"system":"http://loinc.org","code":"3141-9","display":"Weight"},{"system":"urn:oid:2.16.840.1.113883.3.86.3.1","code":"3141-9","display":"Weight"}],"text":"Weight"},"subject":{"reference":"Patient/2","display":"Madigan Test, Test Madigan, MADIGAN TEST, Madigan TEST"},"effectivePeriod":{"start":"2014-03-26T15:10:25+00:00"},"valueQuantity":{"value":54.431085,"unit":"kg"}}},{"resource":{"resourceType":"AllergyIntolerance","id":"241","meta":{"profile":["http://hl7.org/fhir/StructureDefinition/daf-allergyintolerance"]},"clinicalStatus":"active","verificationStatus":"confirmed","type":"allergy","category":["environment"],"code":{"text":"Penicillins"},"patient":{"reference":"Patient/2","display":"Madigan Test, Test Madigan, MADIGAN TEST, Madigan TEST"},"onsetDateTime":"2014-04-09T00:00:00+00:00","assertedDate":"2014-04-09T00:00:00+00:00","reaction":[{"manifestation":[{"coding":[{"system":"urn:oid:2.16.840.1.113883.3.86.3.1","code":"ANAPHYLAXIS","display":"ANAPHYLAXIS"}],"text":"ANAPHYLAXIS"}],"onset":"2014-04-09T00:00:00+00:00"}]}},{"resource":{"resourceType":"AllergyIntolerance","id":"242","meta":{"profile":["http://hl7.org/fhir/StructureDefinition/daf-allergyintolerance"]},"clinicalStatus":"active","verificationStatus":"confirmed","type":"allergy","category":["medication"],"code":{"text":"Penicillins"},"patient":{"reference":"Patient/2","display":"Madigan Test, Test Madigan, MADIGAN TEST, Madigan TEST"},"reaction":[{"manifestation":[{"coding":[{"system":"urn:oid:2.16.840.1.113883.3.86.3.1","code":"ANAPHYLAXIS","display":"ANAPHYLAXIS"}],"text":"ANAPHYLAXIS"}]}]}},{"resource":{"resourceType":"Procedure","id":"243","meta":{"profile":["http://hl7.org/fhir/StructureDefinition/daf-procedure"]},"status":"completed","code":{"coding":[{"system":"urn:oid:2.16.840.1.113883.3.86.3.1","code":"NoProcedures","display":"No Procedures"}],"text":"No Procedures"},"subject":{"reference":"Patient/2","display":"Madigan Test, Test Madigan, MADIGAN TEST, Madigan TEST"}}},{"resource":{"resourceType":"DiagnosticReport","id":"244","meta":{"profile":["http://hl7.org/fhir/StructureDefinition/daf-diagnosticreport"]},"identifier":[{"use":"official","system":"urn:oid:2.16.840.1.113883.4.516","value":"00003805","assigner":{"display":"SHFGW-FillerId"}},{"use":"official","system":"urn:oid:2.16.840.1.113883.4.516","value":"H0005580:00003805:COMP","assigner":{"display":"SHFGW-PlacerId"}}],"status":"final","code":{"coding":[{"system":"urn:oid:2.16.840.1.113883.4.516","code":"COMP","display":"COMPREHENSIVE METABOLIC PANEL"}],"text":"COMPREHENSIVE METABOLIC PANEL"},"subject":{"reference":"Patient/2","display":"Madigan Test, Test Madigan, MADIGAN TEST, Madigan TEST"},"effectivePeriod":{"start":"2014-03-26T15:29:00+00:00","end":"2014-03-26T15:29:00+00:00"},"result":[{"reference":"Observation/245","display":"Creatinine [Mass/volume] in Serum or Plasma"},{"reference":"Observation/246","display":"Potassium [Moles/volume] in Serum or Plasma"},{"reference":"Observation/247","display":"Alanine aminotransferase [Enzymatic activity/volume] in Serum or Plasma by With P-5'-P"},{"reference":"Observation/248","display":"Bilirubin.total [Mass/volume] in Serum or Plasma"},{"reference":"Observation/249","display":"Protein [Mass/volume] in Serum or Plasma"},{"reference":"Observation/250","display":"Albumin/Globulin [Mass Ratio] in 24 hour Urine"},{"reference":"Observation/251","display":"Aspartate aminotransferase [Enzymatic activity/volume] in Serum or Plasma by With P-5'-P"},{"reference":"Observation/252","display":"GLUCOSE"},{"reference":"Observation/253","display":"\"Carbon dioxide, total [Moles/volume] in Serum or Plasma\""},{"reference":"Observation/254","display":"Urea nitrogen/Creatinine [Mass Ratio] in Serum or Plasma"},{"reference":"Observation/255","display":"Albumin [Mass/volume] in Serum or Plasma by Bromocresol purple (BCP) dye binding method"},{"reference":"Observation/256","display":"Osmolality of Serum or Plasma by calculation"},{"reference":"Observation/257","display":"Sodium [Moles/volume] in Serum or Plasma"},{"reference":"Observation/258","display":"Glucose [Mass/volume] in Serum or Plasma"},{"reference":"Observation/259","display":"Chloride [Moles/volume] in Serum or Plasma"},{"reference":"Observation/260","display":"Calcium [Mass/volume] in Serum or Plasma"},{"reference":"Observation/261","display":"Glomerular filtration rate/1.73 sq M.predicted [Volume Rate/Area] in Serum or Plasma"},{"reference":"Observation/262","display":"Alkaline phosphatase [Enzymatic activity/volume] in Serum or Plasma"}]}},{"resource":{"resourceType":"Observation","id":"245","status":"final","code":{"coding":[{"system":"http://loinc.org","code":"2160-0","display":"Creatinine [Mass/volume] in Serum or Plasma"},{"system":"urn:oid:2.16.840.1.113883.4.516","code":"L310.0400","display":"CREATININE"}],"text":"Creatinine [Mass/volume] in Serum or Plasma"},"subject":{"reference":"Patient/2","display":"Madigan Test, Test Madigan, MADIGAN TEST, Madigan TEST"},"effectivePeriod":{"start":"2014-03-26T15:29:00+00:00"},"valueQuantity":{"value":0.6,"unit":"mg/dL"},"referenceRange":[{"low":{"value":0.6,"unit":"mg/dL"},"high":{"value":1.3,"unit":"mg/dL"}}]}},{"resource":{"resourceType":"Observation","id":"246","status":"final","code":{"coding":[{"system":"http://loinc.org","code":"2823-3","display":"Potassium [Moles/volume] in Serum or Plasma"},{"system":"urn:oid:2.16.840.1.113883.4.516","code":"L310.0800","display":"POTASSIUM"}],"text":"Potassium [Moles/volume] in Serum or Plasma"},"subject":{"reference":"Patient/2","display":"Madigan Test, Test Madigan, MADIGAN TEST, Madigan TEST"},"effectivePeriod":{"start":"2014-03-26T15:29:00+00:00"},"valueQuantity":{"value":3.5,"unit":"mmol/L"},"interpretation":{"coding":[{"system":"http://hl7.org/fhir/v2/0078","code":"N","display":"Normal"}]},"referenceRange":[{"low":{"value":3.5,"unit":"mmol/L"},"high":{"value":5.1,"unit":"mmol/L"}}]}},{"resource":{"resourceType":"Observation","id":"247","status":"final","code":{"coding":[{"system":"http://loinc.org","code":"1743-4","display":"Alanine aminotransferase [Enzymatic activity/volume] in Serum or Plasma by With P-5'-P"},{"system":"urn:oid:2.16.840.1.113883.4.516","code":"L310.1400","display":"ALT/SGPT"}],"text":"Alanine aminotransferase [Enzymatic activity/volume] in Serum or Plasma by With P-5'-P"},"subject":{"reference":"Patient/2","display":"Madigan Test, Test Madigan, MADIGAN TEST, Madigan TEST"},"effectivePeriod":{"start":"2014-03-26T15:29:00+00:00"},"valueQuantity":{"value":12,"unit":"U/L"},"interpretation":{"coding":[{"system":"http://hl7.org/fhir/v2/0078","code":"N","display":"Normal"}]},"referenceRange":[{"low":{"value":12,"unit":"U/L"},"high":{"value":78,"unit":"U/L"}}]}},{"resource":{"resourceType":"Observation","id":"248","status":"final","code":{"coding":[{"system":"http://loinc.org","code":"1975-2","display":"Bilirubin.total [Mass/volume] in Serum or Plasma"},{"system":"urn:oid:2.16.840.1.113883.4.516","code":"L310.1700","display":"TOTAL BILIRUBIN"}],"text":"Bilirubin.total [Mass/volume] in Serum or Plasma"},"subject":{"reference":"Patient/2","display":"Madigan Test, Test Madigan, MADIGAN TEST, Madigan TEST"},"effectivePeriod":{"start":"2014-03-26T15:29:00+00:00"},"valueQuantity":{"value":0.2,"unit":"mg/dL"},"interpretation":{"coding":[{"system":"http://hl7.org/fhir/v2/0078","code":"N","display":"Normal"}]},"referenceRange":[{"low":{"value":0.2,"unit":"mg/dL"},"high":{"value":1.0,"unit":"mg/dL"}}]}},{"resource":{"resourceType":"Observation","id":"249","status":"final","code":{"coding":[{"system":"http://loinc.org","code":"2885-2","display":"Protein [Mass/volume] in Serum or Plasma"},{"system":"urn:oid:2.16.840.1.113883.4.516","code":"L310.1900","display":"TOTAL PROTEIN"}],"text":"Protein [Mass/volume] in Serum or Plasma"},"subject":{"reference":"Patient/2","display":"Madigan Test, Test Madigan, MADIGAN TEST, Madigan TEST"},"effectivePeriod":{"start":"2014-03-26T15:29:00+00:00"},"valueQuantity":{"value":6.4,"unit":"G/DL"},"interpretation":{"coding":[{"system":"http://hl7.org/fhir/v2/0078","code":"N","display":"Normal"}]},"referenceRange":[{"low":{"value":6.4,"unit":"G/DL"},"high":{"value":8.2,"unit":"G/DL"}}]}},{"resource":{"resourceType":"Observation","id":"250","status":"final","code":{"coding":[{"system":"http://loinc.org","code":"9406-0","display":"Albumin/Globulin [Mass Ratio] in 24 hour Urine"},{"system":"urn:oid:2.16.840.1.113883.4.516","code":"L310.3500","display":"A/G RATIO"}],"text":"Albumin/Globulin [Mass Ratio] in 24 hour Urine"},"subject":{"reference":"Patient/2","display":"Madigan Test, Test Madigan, MADIGAN TEST, Madigan TEST"},"effectivePeriod":{"start":"2014-03-26T15:29:00+00:00"},"valueString":"1.1","interpretation":{"coding":[{"system":"http://hl7.org/fhir/v2/0078","code":"N","display":"Normal"}]},"referenceRange":[{"low":{"value":1.0,"unit":"1"},"high":{"value":2.2,"unit":"1"}}]}},{"resource":{"resourceType":"Observation","id":"251","status":"final","code":{"coding":[{"system":"http://loinc.org","code":"30239-8","display":"Aspartate aminotransferase [Enzymatic activity/volume] in Serum or Plasma by With P-5'-P"},{"system":"urn:oid:2.16.840.1.113883.4.516","code":"L310.1300","display":"AST/SGOT"}],"text":"Aspartate aminotransferase [Enzymatic activity/volume] in Serum or Plasma by With P-5'-P"},"subject":{"reference":"Patient/2","display":"Madigan Test, Test Madigan, MADIGAN TEST, Madigan TEST"},"effectivePeriod":{"start":"2014-03-26T15:29:00+00:00"},"valueQuantity":{"value":15,"unit":"IU/L"},"interpretation":{"coding":[{"system":"http://hl7.org/fhir/v2/0078","code":"N","display":"Normal"}]},"referenceRange":[{"low":{"value":15,"unit":"IU/L"},"high":{"value":37,"unit":"IU/L"}}]}},{"resource":{"resourceType":"Observation","id":"252","status":"final","code":{"coding":[{"system":"http://loinc.org","code":"4549-2","display":"GLUCOSE"},{"system":"urn:oid:2.16.840.1.113883.4.516","code":"L310.0300","display":"BUN"}],"text":"GLUCOSE"},"subject":{"reference":"Patient/2","display":"Madigan Test, Test Madigan, MADIGAN TEST, Madigan TEST"},"effectivePeriod":{"start":"2014-03-26T15:29:00+00:00"},"valueQuantity":{"value":7,"unit":"mg/dL"},"interpretation":{"coding":[{"system":"http://hl7.org/fhir/v2/0078","code":"N","display":"Normal"}]},"referenceRange":[{"low":{"value":7,"unit":"mg/dL"},"high":{"value":18,"unit":"mg/dL"}}]}},{"resource":{"resourceType":"Observation","id":"253","status":"final","code":{"coding":[{"system":"http://loinc.org","code":"2028-9","display":"\"Carbon dioxide, total [Moles/volume] in Serum or Plasma\""},{"system":"urn:oid:2.16.840.1.113883.4.516","code":"L310.0500","display":"CO2"}],"text":"\"Carbon dioxide, total [Moles/volume] in Serum or Plasma\""},"subject":{"reference":"Patient/2","display":"Madigan Test, Test Madigan, MADIGAN TEST, Madigan TEST"},"effectivePeriod":{"start":"2014-03-26T15:29:00+00:00"},"valueQuantity":{"value":22,"unit":"mmol/L"},"interpretation":{"coding":[{"system":"http://hl7.org/fhir/v2/0078","code":"N","display":"Normal"}]},"referenceRange":[{"low":{"value":22,"unit":"mmol/L"},"high":{"value":29,"unit":"mmol/L"}}]}},{"resource":{"resourceType":"Observation","id":"254","status":"final","code":{"coding":[{"system":"http://loinc.org","code":"3097-3","display":"Urea nitrogen/Creatinine [Mass Ratio] in Serum or Plasma"},{"system":"urn:oid:2.16.840.1.113883.4.516","code":"L310.3300","display":"BUN/CREATININE"}],"text":"Urea nitrogen/Creatinine [Mass Ratio] in Serum or Plasma"},"subject":{"reference":"Patient/2","display":"Madigan Test, Test Madigan, MADIGAN TEST, Madigan TEST"},"effectivePeriod":{"start":"2014-03-26T15:28:00+00:00"},"valueString":"11.0","interpretation":{"coding":[{"system":"http://hl7.org/fhir/v2/0078","code":"N","display":"Normal"}]},"referenceRange":[{"low":{"value":6.7,"unit":"1"},"high":{"value":23.9,"unit":"1"}}]}},{"resource":{"resourceType":"Observation","id":"255","status":"final","code":{"coding":[{"system":"http://loinc.org","code":"61152-5","display":"Albumin [Mass/volume] in Serum or Plasma by Bromocresol purple (BCP) dye binding method"},{"system":"urn:oid:2.16.840.1.113883.4.516","code":"L310.2000","display":"ALBUMIN"}],"text":"Albumin [Mass/volume] in Serum or Plasma by Bromocresol purple (BCP) dye binding method"},"subject":{"reference":"Patient/2","display":"Madigan Test, Test Madigan, MADIGAN TEST, Madigan TEST"},"effectivePeriod":{"start":"2014-03-26T15:29:00+00:00"},"valueQuantity":{"value":3.4,"unit":"G/DL"},"interpretation":{"coding":[{"system":"http://hl7.org/fhir/v2/0078","code":"N","display":"Normal"}]},"referenceRange":[{"low":{"value":3.4,"unit":"G/DL"},"high":{"value":5.0,"unit":"G/DL"}}]}},{"resource":{"resourceType":"Observation","id":"256","status":"final","code":{"coding":[{"system":"http://loinc.org","code":"18182-6","display":"Osmolality of Serum or Plasma by calculation"},{"system":"urn:oid:2.16.840.1.113883.4.516","code":"L310.3400","display":"CALCULATED OSMO"}],"text":"Osmolality of Serum or Plasma by calculation"},"subject":{"reference":"Patient/2","display":"Madigan Test, Test Madigan, MADIGAN TEST, Madigan TEST"},"effectivePeriod":{"start":"2014-03-26T15:28:00+00:00"},"valueString":"267.5","interpretation":{"coding":[{"system":"http://hl7.org/fhir/v2/0078","code":"L","display":"Low"}]},"referenceRange":[{"low":{"value":273,"unit":"1"},"high":{"value":287,"unit":"1"}}]}},{"resource":{"resourceType":"Observation","id":"257","status":"final","code":{"coding":[{"system":"http://loinc.org","code":"2951-2","display":"Sodium [Moles/volume] in Serum or Plasma"},{"system":"urn:oid:2.16.840.1.113883.4.516","code":"L310.0700","display":"SODIUM"}],"text":"Sodium [Moles/volume] in Serum or Plasma"},"subject":{"reference":"Patient/2","display":"Madigan Test, Test Madigan, MADIGAN TEST, Madigan TEST"},"effectivePeriod":{"start":"2014-03-26T15:29:00+00:00"},"valueQuantity":{"value":136,"unit":"mmol/L"},"interpretation":{"coding":[{"system":"http://hl7.org/fhir/v2/0078","code":"N","display":"Normal"}]},"referenceRange":[{"low":{"value":136,"unit":"mmol/L"},"high":{"value":145,"unit":"mmol/L"}}]}},{"resource":{"resourceType":"Observation","id":"258","status":"final","code":{"coding":[{"system":"http://loinc.org","code":"2345-7","display":"Glucose [Mass/volume] in Serum or Plasma"},{"system":"urn:oid:2.16.840.1.113883.4.516","code":"L310.0100","display":"GLUCOSE"}],"text":"Glucose [Mass/volume] in Serum or Plasma"},"subject":{"reference":"Patient/2","display":"Madigan Test, Test Madigan, MADIGAN TEST, Madigan TEST"},"effectivePeriod":{"start":"2014-03-26T15:29:00+00:00"},"valueQuantity":{"value":70,"unit":"mg/dL"},"interpretation":{"coding":[{"system":"http://hl7.org/fhir/v2/0078","code":"N","display":"Normal"}]},"referenceRange":[{"low":{"value":70,"unit":"mg/dL"},"high":{"value":110,"unit":"mg/dL"}}]}},{"resource":{"resourceType":"Observation","id":"259","status":"final","code":{"coding":[{"system":"http://loinc.org","code":"2075-0","display":"Chloride [Moles/volume] in Serum or Plasma"},{"system":"urn:oid:2.16.840.1.113883.4.516","code":"L310.0600","display":"CL"}],"text":"Chloride [Moles/volume] in Serum or Plasma"},"subject":{"reference":"Patient/2","display":"Madigan Test, Test Madigan, MADIGAN TEST, Madigan TEST"},"effectivePeriod":{"start":"2014-03-26T15:29:00+00:00"},"valueQuantity":{"value":98,"unit":"mmol/L"},"interpretation":{"coding":[{"system":"http://hl7.org/fhir/v2/0078","code":"N","display":"Normal"}]},"referenceRange":[{"low":{"value":98,"unit":"mmol/L"},"high":{"value":107,"unit":"mmol/L"}}]}},{"resource":{"resourceType":"Observation","id":"260","status":"final","code":{"coding":[{"system":"http://loinc.org","code":"17861-6","display":"Calcium [Mass/volume] in Serum or Plasma"},{"system":"urn:oid:2.16.840.1.113883.4.516","code":"L310.0900","display":"CALCIUM"}],"text":"Calcium [Mass/volume] in Serum or Plasma"},"subject":{"reference":"Patient/2","display":"Madigan Test, Test Madigan, MADIGAN TEST, Madigan TEST"},"effectivePeriod":{"start":"2014-03-26T15:29:00+00:00"},"valueQuantity":{"value":8.5,"unit":"mg/dL"},"interpretation":{"coding":[{"system":"http://hl7.org/fhir/v2/0078","code":"N","display":"Normal"}]},"referenceRange":[{"low":{"value":8.5,"unit":"mg/dL"},"high":{"value":10.1,"unit":"mg/dL"}}]}},{"resource":{"resourceType":"Observation","id":"261","status":"final","code":{"coding":[{"system":"http://loinc.org","code":"69405-9","display":"Glomerular filtration rate/1.73 sq M.predicted [Volume Rate/Area] in Serum or Plasma"},{"system":"urn:oid:2.16.840.1.113883.4.516","code":"L310.0401","display":"GLOMERULAR FILT"}],"text":"Glomerular filtration rate/1.73 sq M.predicted [Volume Rate/Area] in Serum or Plasma"},"subject":{"reference":"Patient/2","display":"Madigan Test, Test Madigan, MADIGAN TEST, Madigan TEST"},"effectivePeriod":{"start":"2014-03-26T15:28:00+00:00"},"valueString":"> 60.00 ml/min","interpretation":{"coding":[{"system":"http://hl7.org/fhir/v2/0078","code":"N","display":"Normal"}]},"referenceRange":[{"text":">60.0"}]}},{"resource":{"resourceType":"Observation","id":"262","status":"final","code":{"coding":[{"system":"http://loinc.org","code":"6768-6","display":"Alkaline phosphatase [Enzymatic activity/volume] in Serum or Plasma"},{"system":"urn:oid:2.16.840.1.113883.4.516","code":"L310.1500","display":"ALKALINE PHOS"}],"text":"Alkaline phosphatase [Enzymatic activity/volume] in Serum or Plasma"},"subject":{"reference":"Patient/2","display":"Madigan Test, Test Madigan, MADIGAN TEST, Madigan TEST"},"effectivePeriod":{"start":"2014-03-26T15:29:00+00:00"},"valueQuantity":{"value":50,"unit":"IU/L"},"interpretation":{"coding":[{"system":"http://hl7.org/fhir/v2/0078","code":"N","display":"Normal"}]},"referenceRange":[{"low":{"value":50,"unit":"IU/L"},"high":{"value":136,"unit":"IU/L"}}]}},{"resource":{"resourceType":"DiagnosticReport","id":"263","meta":{"profile":["http://hl7.org/fhir/StructureDefinition/daf-diagnosticreport"]},"identifier":[{"use":"official","system":"urn:oid:1.3.6.1.4.1.39322.99.2.1.3.7.1","value":"22224222-0","assigner":{"display":"CVPH-FillerId"}},{"use":"official","system":"urn:oid:1.3.6.1.4.1.39322.99.2.1.3.7.1","value":"11121111-T11111","assigner":{"display":"CVPH-PlacerId"}}],"status":"final","code":{"coding":[{"system":"http://loinc.org","code":"43151-0","display":"GLUCOSE POINT OF CARE"},{"system":"urn:oid:1.3.6.1.4.1.39322.99.2.1.3.7.1","code":"GPOC","display":"GLUCOSE,POINT OF CARE"}],"text":"GLUCOSE POINT OF CARE"},"subject":{"reference":"Patient/2","display":"Madigan Test, Test Madigan, MADIGAN TEST, Madigan TEST"},"effectivePeriod":{"start":"2019-04-05T07:53:00+00:00","end":"2019-04-05T07:53:00+00:00"},"result":[{"reference":"Observation/264","display":"Glucose [Mass/volume] in Capillary blood by Glucometer"}]}},{"resource":{"resourceType":"Observation","id":"264","status":"final","code":{"coding":[{"system":"http://loinc.org","code":"41653-7","display":"Glucose [Mass/volume] in Capillary blood by Glucometer"},{"system":"urn:oid:1.3.6.1.4.1.39322.99.2.1.3.7.1","code":"GLU","display":"GLUCOSE,GLUCOMETER"}],"text":"Glucose [Mass/volume] in Capillary blood by Glucometer"},"subject":{"reference":"Patient/2","display":"Madigan Test, Test Madigan, MADIGAN TEST, Madigan TEST"},"effectivePeriod":{"start":"2019-04-05T07:53:00+00:00"},"valueQuantity":{"value":185,"unit":"mg/dL"},"interpretation":{"coding":[{"system":"http://hl7.org/fhir/v2/0078","code":"H","display":"High"}]},"referenceRange":[{"low":{"value":75,"unit":"mg/dL"},"high":{"value":99,"unit":"mg/dL"}}]}},{"resource":{"resourceType":"DiagnosticReport","id":"265","meta":{"profile":["http://hl7.org/fhir/StructureDefinition/daf-diagnosticreport"]},"identifier":[{"use":"official","system":"urn:oid:1.3.6.1.4.1.39322.99.2.1.3.7.1","value":"22222222-0","assigner":{"display":"CVPH-FillerId"}},{"use":"official","system":"urn:oid:1.3.6.1.4.1.39322.99.2.1.3.7.1","value":"11111111-T11111","assigner":{"display":"CVPH-PlacerId"}}],"status":"final","code":{"coding":[{"system":"http://loinc.org","code":"43151-0","display":"GLUCOSE POINT OF CARE"},{"system":"urn:oid:1.3.6.1.4.1.39322.99.2.1.3.7.1","code":"GPOC","display":"GLUCOSE,POINT OF CARE"}],"text":"GLUCOSE POINT OF CARE"},"subject":{"reference":"Patient/2","display":"Madigan Test, Test Madigan, MADIGAN TEST, Madigan TEST"},"effectivePeriod":{"start":"2019-05-04T07:53:00+00:00","end":"2019-05-04T07:53:00+00:00"},"result":[{"reference":"Observation/266","display":"Glucose [Mass/volume] in Capillary blood by Glucometer"}]}},{"resource":{"resourceType":"Observation","id":"266","status":"final","code":{"coding":[{"system":"http://loinc.org","code":"41653-7","display":"Glucose [Mass/volume] in Capillary blood by Glucometer"},{"system":"urn:oid:1.3.6.1.4.1.39322.99.2.1.3.7.1","code":"GLU","display":"GLUCOSE,GLUCOMETER"}],"text":"Glucose [Mass/volume] in Capillary blood by Glucometer"},"subject":{"reference":"Patient/2","display":"Madigan Test, Test Madigan, MADIGAN TEST, Madigan TEST"},"effectivePeriod":{"start":"2019-05-04T07:53:00+00:00"},"valueQuantity":{"value":180,"unit":"mg/dL"},"interpretation":{"coding":[{"system":"http://hl7.org/fhir/v2/0078","code":"H","display":"High"}]},"referenceRange":[{"low":{"value":75,"unit":"mg/dL"},"high":{"value":99,"unit":"mg/dL"}}]}},{"resource":{"resourceType":"DiagnosticReport","id":"267","meta":{"profile":["http://hl7.org/fhir/StructureDefinition/daf-diagnosticreport"]},"identifier":[{"use":"official","system":"urn:oid:999.2.16.840.1.113883.4.516","value":"165BE81E-854A-4198-98E4-4968564C15C3","assigner":{"display":"SHFGWDOC-FillerId"}},{"use":"official","system":"urn:oid:999.2.16.840.1.113883.4.516","value":"62338C3A-86B2-43EB-A84A-8D9F4F9FC31A","assigner":{"display":"SHFGWDOC-PlacerId"}}],"status":"final","code":{"coding":[{"system":"urn:oid:2.16.840.1.113883.3.86.3.1","code":"NA","display":"No Result Data"}],"text":"No Result Data"},"subject":{"reference":"Patient/2","display":"Madigan Test, Test Madigan, MADIGAN TEST, Madigan TEST"},"effectivePeriod":{"start":"2014-04-09T11:27:00+00:00","end":"2014-04-09T11:27:00+00:00"},"result":[{"reference":"Observation/268","display":"No Result Data"}]}},{"resource":{"resourceType":"Observation","id":"268","status":"final","code":{"coding":[{"system":"urn:oid:2.16.840.1.113883.3.86.3.1","code":"NA","display":"No Result Data"}],"text":"No Result Data"},"subject":{"reference":"Patient/2","display":"Madigan Test, Test Madigan, MADIGAN TEST, Madigan TEST"},"effectivePeriod":{"start":"2014-04-09T11:27:00+00:00"},"dataAbsentReason":{"coding":[{"system":"http://hl7.org/fhir/data-absent-reason","code":"unsupported","display":"Unsupported"}]}}},{"resource":{"resourceType":"DiagnosticReport","id":"269","meta":{"profile":["http://hl7.org/fhir/StructureDefinition/daf-diagnosticreport"]},"identifier":[{"use":"official","system":"urn:oid:2.16.840.1.113883.4.516","value":"00003692","assigner":{"display":"SHFGW-FillerId"}},{"use":"official","system":"urn:oid:2.16.840.1.113883.4.516","value":"H0005580:00003692:CRE","assigner":{"display":"SHFGW-PlacerId"}}],"status":"final","code":{"coding":[{"system":"urn:oid:2.16.840.1.113883.4.516","code":"CRE","display":"CREATININE"}],"text":"CREATININE"},"subject":{"reference":"Patient/2","display":"Madigan Test, Test Madigan, MADIGAN TEST, Madigan TEST"},"effectivePeriod":{"start":"2014-03-19T17:25:00+00:00","end":"2014-03-19T17:25:00+00:00"},"result":[{"reference":"Observation/270","display":"Creatinine [Mass/volume] in Serum or Plasma"},{"reference":"Observation/271","display":"Glomerular filtration rate/1.73 sq M.predicted [Volume Rate/Area] in Serum or Plasma"}]}},{"resource":{"resourceType":"Observation","id":"270","status":"final","code":{"coding":[{"system":"http://loinc.org","code":"2160-0","display":"Creatinine [Mass/volume] in Serum or Plasma"},{"system":"urn:oid:2.16.840.1.113883.4.516","code":"L310.0400","display":"CREATININE"}],"text":"Creatinine [Mass/volume] in Serum or Plasma"},"subject":{"reference":"Patient/2","display":"Madigan Test, Test Madigan, MADIGAN TEST, Madigan TEST"},"effectivePeriod":{"start":"2014-03-19T17:25:00+00:00"},"valueQuantity":{"value":1.3,"unit":"mg/dL"},"interpretation":{"coding":[{"system":"http://hl7.org/fhir/v2/0078","code":"N","display":"Normal"}]},"referenceRange":[{"low":{"value":0.6,"unit":"mg/dL"},"high":{"value":1.3,"unit":"mg/dL"}}]}},{"resource":{"resourceType":"Observation","id":"271","status":"final","code":{"coding":[{"system":"http://loinc.org","code":"69405-9","display":"Glomerular filtration rate/1.73 sq M.predicted [Volume Rate/Area] in Serum or Plasma"},{"system":"urn:oid:2.16.840.1.113883.4.516","code":"L310.0401","display":"GLOMERULAR FILT"}],"text":"Glomerular filtration rate/1.73 sq M.predicted [Volume Rate/Area] in Serum or Plasma"},"subject":{"reference":"Patient/2","display":"Madigan Test, Test Madigan, MADIGAN TEST, Madigan TEST"},"effectivePeriod":{"start":"2014-03-19T17:25:00+00:00"},"valueQuantity":{"value":50.14,"unit":"ml/min"},"interpretation":{"coding":[{"system":"http://hl7.org/fhir/v2/0078","code":"L","display":"Low"}]},"referenceRange":[{"text":">60.0"}]}},{"resource":{"resourceType":"DiagnosticReport","id":"272","meta":{"profile":["http://hl7.org/fhir/StructureDefinition/daf-diagnosticreport"]},"identifier":[{"use":"official","system":"urn:oid:1.3.6.1.4.1.39322.99.2.1.3.7.1","value":"22225222-0","assigner":{"display":"CVPH-FillerId"}},{"use":"official","system":"urn:oid:1.3.6.1.4.1.39322.99.2.1.3.7.1","value":"11131111-T11111","assigner":{"display":"CVPH-PlacerId"}}],"status":"final","code":{"coding":[{"system":"http://loinc.org","code":"43151-0","display":"GLUCOSE POINT OF CARE"},{"system":"urn:oid:1.3.6.1.4.1.39322.99.2.1.3.7.1","code":"GPOC","display":"GLUCOSE,POINT OF CARE"}],"text":"GLUCOSE POINT OF CARE"},"subject":{"reference":"Patient/2","display":"Madigan Test, Test Madigan, MADIGAN TEST, Madigan TEST"},"effectivePeriod":{"start":"2019-06-12T00:00:00+00:00","end":"2019-06-12T00:00:00+00:00"},"result":[{"reference":"Observation/273","display":"Glucose [Mass/volume] in Capillary blood by Glucometer"}]}},{"resource":{"resourceType":"Observation","id":"273","status":"final","code":{"coding":[{"system":"http://loinc.org","code":"41653-7","display":"Glucose [Mass/volume] in Capillary blood by Glucometer"},{"system":"urn:oid:1.3.6.1.4.1.39322.99.2.1.3.7.1","code":"GLU","display":"GLUCOSE,GLUCOMETER"}],"text":"Glucose [Mass/volume] in Capillary blood by Glucometer"},"subject":{"reference":"Patient/2","display":"Madigan Test, Test Madigan, MADIGAN TEST, Madigan TEST"},"effectivePeriod":{"start":"2019-06-12T00:00:00+00:00"},"valueQuantity":{"value":190,"unit":"mg/dL"},"interpretation":{"coding":[{"system":"http://hl7.org/fhir/v2/0078","code":"H","display":"High"}]},"referenceRange":[{"low":{"value":75,"unit":"mg/dL"},"high":{"value":99,"unit":"mg/dL"}}]}},{"resource":{"resourceType":"DiagnosticReport","id":"274","meta":{"profile":["http://hl7.org/fhir/StructureDefinition/daf-diagnosticreport"]},"identifier":[{"use":"official","system":"urn:oid:2.16.840.1.113883.4.516","value":"00003692","assigner":{"display":"SHFGW-FillerId"}},{"use":"official","system":"urn:oid:2.16.840.1.113883.4.516","value":"H0005580:00003692:TRO","assigner":{"display":"SHFGW-PlacerId"}}],"status":"final","code":{"coding":[{"system":"urn:oid:2.16.840.1.113883.4.516","code":"TRO","display":"TROPONIN I"}],"text":"TROPONIN I"},"subject":{"reference":"Patient/2","display":"Madigan Test, Test Madigan, MADIGAN TEST, Madigan TEST"},"effectivePeriod":{"start":"2014-03-19T17:25:00+00:00","end":"2014-03-19T17:25:00+00:00"},"result":[{"reference":"Observation/275","display":"Troponin I.cardiac [Mass/volume] in Serum or Plasma"}]}},{"resource":{"resourceType":"Observation","id":"275","status":"final","code":{"coding":[{"system":"http://loinc.org","code":"10839-9","display":"Troponin I.cardiac [Mass/volume] in Serum or Plasma"},{"system":"urn:oid:2.16.840.1.113883.4.516","code":"L610.0590","display":"TROPONIN I"}],"text":"Troponin I.cardiac [Mass/volume] in Serum or Plasma"},"subject":{"reference":"Patient/2","display":"Madigan Test, Test Madigan, MADIGAN TEST, Madigan TEST"},"effectivePeriod":{"start":"2014-03-19T17:25:00+00:00"},"valueQuantity":{"value":0.15,"unit":"NG/ML"},"interpretation":{"coding":[{"system":"http://hl7.org/fhir/v2/0078","code":"N","display":"Normal"}]}}},{"resource":{"resourceType":"Encounter","id":"276","meta":{"profile":["http://hl7.org/fhir/StructureDefinition/daf-encounter"]},"identifier":[{"use":"official","system":"urn:oid:2.16.840.1.113883.4.516","value":"X000010041","assigner":{"display":"SHFGW-EncounterId"}}],"status":"finished","type":[{"coding":[{"system":"http://www.ama-assn.org/go/cpt","code":"IMP","display":"Inpatient Encounter"}],"text":"Inpatient"}],"subject":{"reference":"Patient/2","display":"Madigan Test, Test Madigan, MADIGAN TEST, Madigan TEST"},"participant":[{"type":[{"coding":[{"system":"http://hl7.org/fhir/v3/ParticipationType","code":"PART","display":"Participation"}]}],"individual":{"reference":"Practitioner/34","display":"CPOE SIP TEST PROVIDER"}}],"period":{"start":"2014-04-09T09:27:00+00:00","end":"2014-04-09T09:55:00+00:00"},"location":[{"location":{"reference":"Location/277","display":"Saratoga Hospital"}}]}},{"resource":{"resourceType":"Location","id":"277","meta":{"profile":["http://hl7.org/fhir/StructureDefinition/daf-location"]},"identifier":[{"use":"official","system":"urn:oid:2.16.840.1.113883.4.516","value":"SHFGW"}],"name":"Saratoga Hospital"}},{"resource":{"resourceType":"Encounter","id":"278","meta":{"profile":["http://hl7.org/fhir/StructureDefinition/daf-encounter"]},"identifier":[{"use":"official","system":"urn:oid:2.16.840.1.113883.4.516","value":"H0005580-X000010041-1-IN","assigner":{"display":"SHFGW-EncounterId"}}],"status":"finished","type":[{"coding":[{"system":"urn:oid:2.16.840.1.113883.5.4","code":"IMP","display":"IN"}],"text":"IN"}],"subject":{"reference":"Patient/2","display":"Madigan Test, Test Madigan, MADIGAN TEST, Madigan TEST"},"participant":[{"type":[{"coding":[{"system":"http://hl7.org/fhir/v3/ParticipationType","code":"PART","display":"Participation"}]}],"individual":{"reference":"Practitioner/22","display":"SIP CPOE"}}],"period":{"start":"2014-04-09T09:27:00+00:00","end":"2014-04-09T09:55:00+00:00"},"location":[{"location":{"reference":"Location/279","display":"Saratoga Hospital"}}]}},{"resource":{"resourceType":"Location","id":"279","meta":{"profile":["http://hl7.org/fhir/StructureDefinition/daf-location"]},"identifier":[{"use":"official","system":"urn:oid:2.16.840.1.113883.4.516","value":"SaratogaHospital"}],"name":"Saratoga Hospital"}},{"resource":{"resourceType":"Encounter","id":"280","meta":{"profile":["http://hl7.org/fhir/StructureDefinition/daf-encounter"]},"identifier":[{"use":"official","system":"urn:oid:1.3.6.1.4.1.39322.99.2.1.3.7.1","value":"1111111","assigner":{"display":"CVPH-EncounterId"}}],"status":"finished","type":[{"coding":[{"system":"http://www.ama-assn.org/go/cpt","code":"AMB","display":"Ambulatory"}],"text":"Outpatient"}],"subject":{"reference":"Patient/2","display":"Madigan Test, Test Madigan, MADIGAN TEST, Madigan TEST"},"participant":[{"type":[{"coding":[{"system":"http://hl7.org/fhir/v3/ParticipationType","code":"PART","display":"Participation"}]}],"individual":{"reference":"Practitioner/10","display":"LEO GRAFSTEIN"}}],"period":{"start":"2019-05-03T16:55:36+00:00"},"location":[{"location":{"reference":"Location/281","display":"CVPH Hospital"}}]}},{"resource":{"resourceType":"Location","id":"281","meta":{"profile":["http://hl7.org/fhir/StructureDefinition/daf-location"]},"identifier":[{"use":"official","system":"urn:oid:1.3.6.1.4.1.39322.99.2.1.3.7.1","value":"CVPH"}],"name":"CVPH Hospital"}},{"resource":{"resourceType":"Encounter","id":"282","meta":{"profile":["http://hl7.org/fhir/StructureDefinition/daf-encounter"]},"identifier":[{"use":"official","system":"urn:oid:2.16.840.1.113883.4.319.5","value":"500123393","assigner":{"display":"ALBMED-EncounterId"}}],"status":"finished","type":[{"coding":[{"system":"http://www.ama-assn.org/go/cpt","code":"EMER","display":"Emergency"}],"text":"Emergency"}],"subject":{"reference":"Patient/2","display":"Madigan Test, Test Madigan, MADIGAN TEST, Madigan TEST"},"participant":[{"type":[{"coding":[{"system":"http://hl7.org/fhir/v3/ParticipationType","code":"PART","display":"Participation"}]}],"individual":{"reference":"Practitioner/30","display":"WILLIAM CARAMORE"}}],"period":{"start":"2017-02-01T13:55:00+00:00","end":"2017-06-20T11:13:00+00:00"},"location":[{"location":{"reference":"Location/283","display":"Albany Medical Center"}}]}},{"resource":{"resourceType":"Location","id":"283","meta":{"profile":["http://hl7.org/fhir/StructureDefinition/daf-location"]},"identifier":[{"use":"official","system":"urn:oid:2.16.840.1.113883.4.319.5","value":"ALBMED"}],"name":"Albany Medical Center"}},{"resource":{"resourceType":"Encounter","id":"284","meta":{"profile":["http://hl7.org/fhir/StructureDefinition/daf-encounter"]},"identifier":[{"use":"official","system":"urn:oid:2.16.840.1.113883.3.1553","value":"M0000023770","assigner":{"display":"SMA-EncounterId"}}],"status":"finished","type":[{"coding":[{"system":"http://www.ama-assn.org/go/cpt","code":"IMP","display":"Inpatient Encounter"}],"text":"Inpatient"}],"subject":{"reference":"Patient/2","display":"Madigan Test, Test Madigan, MADIGAN TEST, Madigan TEST"},"participant":[{"type":[{"coding":[{"system":"http://hl7.org/fhir/v3/ParticipationType","code":"PART","display":"Participation"}]}],"individual":{"reference":"Practitioner/28","display":"DOCTOR MEDITECH"}}],"period":{"start":"2016-05-18T09:36:00+00:00"},"location":[{"location":{"reference":"Location/285","display":"St. Marys Hospital Amsterdam"}}]}},{"resource":{"resourceType":"Location","id":"285","meta":{"profile":["http://hl7.org/fhir/StructureDefinition/daf-location"]},"identifier":[{"use":"official","system":"urn:oid:2.16.840.1.113883.3.1553","value":"SMA"}],"name":"St. Marys Hospital Amsterdam"}},{"resource":{"resourceType":"Encounter","id":"286","meta":{"profile":["http://hl7.org/fhir/StructureDefinition/daf-encounter"]},"identifier":[{"use":"official","system":"urn:oid:2.16.840.1.113883.3.1553","value":"M0000023721","assigner":{"display":"SMA-EncounterId"}}],"status":"finished","type":[{"coding":[{"system":"http://www.ama-assn.org/go/cpt","code":"IMP","display":"Inpatient Encounter"}],"text":"Inpatient"}],"subject":{"reference":"Patient/2","display":"Madigan Test, Test Madigan, MADIGAN TEST, Madigan TEST"},"participant":[{"type":[{"coding":[{"system":"http://hl7.org/fhir/v3/ParticipationType","code":"PART","display":"Participation"}]}],"individual":{"reference":"Practitioner/28","display":"DOCTOR MEDITECH"}}],"period":{"start":"2016-05-17T10:28:00+00:00","end":"2016-05-17T10:38:00+00:00"},"location":[{"location":{"reference":"Location/287","display":"St. Marys Hospital Amsterdam"}}]}},{"resource":{"resourceType":"Location","id":"287","meta":{"profile":["http://hl7.org/fhir/StructureDefinition/daf-location"]},"identifier":[{"use":"official","system":"urn:oid:2.16.840.1.113883.3.1553","value":"SMA"}],"name":"St. Marys Hospital Amsterdam"}},{"resource":{"resourceType":"Encounter","id":"288","meta":{"profile":["http://hl7.org/fhir/StructureDefinition/daf-encounter"]},"identifier":[{"use":"official","system":"urn:oid:2.16.840.1.113883.4.516","value":"X000008730","assigner":{"display":"SHFGW-EncounterId"}}],"status":"finished","type":[{"coding":[{"system":"http://www.ama-assn.org/go/cpt","code":"IMP","display":"Inpatient Encounter"}],"text":"Inpatient"}],"subject":{"reference":"Patient/2","display":"Madigan Test, Test Madigan, MADIGAN TEST, Madigan TEST"},"participant":[{"type":[{"coding":[{"system":"http://hl7.org/fhir/v3/ParticipationType","code":"PART","display":"Participation"}]}],"individual":{"reference":"Practitioner/36","display":"Heather Madigan DO"}}],"period":{"start":"2014-03-12T14:17:00+00:00","end":"2014-03-26T15:10:00+00:00"},"location":[{"location":{"reference":"Location/289","display":"Saratoga Hospital"}}]}},{"resource":{"resourceType":"Location","id":"289","meta":{"profile":["http://hl7.org/fhir/StructureDefinition/daf-location"]},"identifier":[{"use":"official","system":"urn:oid:2.16.840.1.113883.4.516","value":"SHFGW"}],"name":"Saratoga Hospital"}},{"resource":{"resourceType":"Encounter","id":"290","meta":{"profile":["http://hl7.org/fhir/StructureDefinition/daf-encounter"]},"identifier":[{"use":"official","system":"urn:oid:2.16.840.1.113883.3.1553","value":"M0000023721","assigner":{"display":"SMA-EncounterId"}}],"status":"finished","type":[{"coding":[{"system":"urn:oid:2.16.840.1.113883.3.86.3.1","code":"DischargedInpatient","display":"Discharged Inpatient"}],"text":"Discharged Inpatient"}],"subject":{"reference":"Patient/2","display":"Madigan Test, Test Madigan, MADIGAN TEST, Madigan TEST"},"participant":[{"type":[{"coding":[{"system":"http://hl7.org/fhir/v3/ParticipationType","code":"PART","display":"Participation"}]}],"individual":{"reference":"Practitioner/291","display":"DOCTOR MEDITECH"}}],"period":{"start":"2016-05-17T10:28:00+00:00","end":"2016-05-17T10:38:00+00:00"},"location":[{"location":{"reference":"Location/293","display":"St. Marys Hospital Amsterdam"}}]}},{"resource":{"resourceType":"Practitioner","id":"291","meta":{"profile":["http://hl7.org/fhir/StructureDefinition/daf-pract"]},"identifier":[{"use":"official","system":"urn:uuid:68c57fd1-1d0e-11e6-a308-a0369f62f123","value":"1999866654"}],"name":[{"use":"usual","family":"MEDITECH","given":["DOCTOR"]}],"telecom":[{"system":"phone","value":"841-7539","use":"work"}],"address":[{"use":"work","line":["427 GUY PARK AVE"],"city":"AMSTERDAM","state":"NY","postalCode":"12010"}]}},{"resource":{"resourceType":"Location","id":"293","meta":{"profile":["http://hl7.org/fhir/StructureDefinition/daf-location"]},"identifier":[{"use":"official","system":"urn:oid:2.16.840.1.113883.3.1553","value":"SMA"}],"name":"St. Marys Hospital Amsterdam"}},{"resource":{"resourceType":"Encounter","id":"294","meta":{"profile":["http://hl7.org/fhir/StructureDefinition/daf-encounter"]},"identifier":[{"use":"official","system":"urn:oid:1.3.6.1.4.1.39322.99.2.1.3.7.1","value":"1121111","assigner":{"display":"CVPH-EncounterId"}}],"status":"finished","type":[{"coding":[{"system":"http://www.ama-assn.org/go/cpt","code":"AMB","display":"Ambulatory"}],"text":"Outpatient"}],"subject":{"reference":"Patient/2","display":"Madigan Test, Test Madigan, MADIGAN TEST, Madigan TEST"},"participant":[{"type":[{"coding":[{"system":"http://hl7.org/fhir/v3/ParticipationType","code":"PART","display":"Participation"}]}],"individual":{"reference":"Practitioner/10","display":"LEO GRAFSTEIN"}}],"period":{"start":"2019-05-06T13:00:18+00:00"},"location":[{"location":{"reference":"Location/295","display":"CVPH Hospital"}}]}},{"resource":{"resourceType":"Location","id":"295","meta":{"profile":["http://hl7.org/fhir/StructureDefinition/daf-location"]},"identifier":[{"use":"official","system":"urn:oid:1.3.6.1.4.1.39322.99.2.1.3.7.1","value":"CVPH"}],"name":"CVPH Hospital"}},{"resource":{"resourceType":"Encounter","id":"296","meta":{"profile":["http://hl7.org/fhir/StructureDefinition/daf-encounter"]},"identifier":[{"use":"official","system":"urn:oid:2.16.840.1.113883.4.319.5","value":"500123336","assigner":{"display":"ALBMED-EncounterId"}}],"status":"finished","type":[{"coding":[{"system":"http://www.ama-assn.org/go/cpt","code":"IMP","display":"Inpatient Encounter"}],"text":"Inpatient"}],"subject":{"reference":"Patient/2","display":"Madigan Test, Test Madigan, MADIGAN TEST, Madigan TEST"},"participant":[{"type":[{"coding":[{"system":"http://hl7.org/fhir/v3/ParticipationType","code":"PART","display":"Participation"}]}],"individual":{"reference":"Practitioner/30","display":"WILLIAM CARAMORE"}}],"period":{"start":"2017-02-01T08:05:00+00:00","end":"2017-02-01T10:05:00+00:00"},"location":[{"location":{"reference":"Location/297","display":"Albany Medical Center"}}]}},{"resource":{"resourceType":"Location","id":"297","meta":{"profile":["http://hl7.org/fhir/StructureDefinition/daf-location"]},"identifier":[{"use":"official","system":"urn:oid:2.16.840.1.113883.4.319.5","value":"ALBMED"}],"name":"Albany Medical Center"}},{"resource":{"resourceType":"Encounter","id":"298","meta":{"profile":["http://hl7.org/fhir/StructureDefinition/daf-encounter"]},"identifier":[{"use":"official","system":"urn:oid:1.3.6.1.4.1.22812.3.5868002.3","value":"622594","assigner":{"display":"AMCFP-EncounterId"}}],"status":"finished","type":[{"coding":[{"system":"urn:oid:2.16.840.1.113883.5.4","code":"Non-Appointment;VANDELINDER,TERRY","display":"Non-Appointment; VANDELINDER,TERRY"}],"text":"Non-Appointment; VANDELINDER,TERRY"}],"subject":{"reference":"Patient/2","display":"Madigan Test, Test Madigan, MADIGAN TEST, Madigan TEST"},"period":{"start":"2016-12-30T11:25:00+00:00","end":"2016-12-30T11:30:09+00:00"},"location":[{"location":{"reference":"Location/299","display":"Albany Medical Center Faculty Practices"}}]}},{"resource":{"resourceType":"Location","id":"299","meta":{"profile":["http://hl7.org/fhir/StructureDefinition/daf-location"]},"identifier":[{"use":"official","system":"urn:oid:1.3.6.1.4.1.22812.3.5868002.3","value":"AMCFP"}],"name":"Albany Medical Center Faculty Practices"}},{"resource":{"resourceType":"Encounter","id":"300","meta":{"profile":["http://hl7.org/fhir/StructureDefinition/daf-encounter"]},"identifier":[{"use":"official","system":"urn:oid:2.16.840.1.113883.3.1553","value":"M0000023770","assigner":{"display":"SMA-EncounterId"}}],"status":"finished","type":[{"coding":[{"system":"urn:oid:2.16.840.1.113883.3.86.3.1","code":"AdmittedInpatient","display":"Admitted Inpatient"}],"text":"Admitted Inpatient"}],"subject":{"reference":"Patient/2","display":"Madigan Test, Test Madigan, MADIGAN TEST, Madigan TEST"},"participant":[{"type":[{"coding":[{"system":"http://hl7.org/fhir/v3/ParticipationType","code":"PART","display":"Participation"}]}],"individual":{"reference":"Practitioner/18","display":"DOCTOR MEDITECH"}}],"period":{"start":"2016-05-18T09:36:00+00:00"},"location":[{"location":{"reference":"Location/301","display":"St. Marys Hospital Amsterdam"}}]}},{"resource":{"resourceType":"Location","id":"301","meta":{"profile":["http://hl7.org/fhir/StructureDefinition/daf-location"]},"identifier":[{"use":"official","system":"urn:oid:2.16.840.1.113883.3.1553","value":"SMA"}],"name":"St. Marys Hospital Amsterdam"}},{"resource":{"resourceType":"Encounter","id":"302","meta":{"profile":["http://hl7.org/fhir/StructureDefinition/daf-encounter"]},"identifier":[{"use":"official","system":"urn:oid:1.3.6.1.4.1.39322.99.2.1.3.7.1","value":"2141421","assigner":{"display":"CVPH-EncounterId"}}],"status":"finished","type":[{"coding":[{"system":"http://www.ama-assn.org/go/cpt","code":"EMER","display":"Emergency"}],"text":"Emergency"}],"subject":{"reference":"Patient/2","display":"Madigan Test, Test Madigan, MADIGAN TEST, Madigan TEST"},"participant":[{"type":[{"coding":[{"system":"http://hl7.org/fhir/v3/ParticipationType","code":"PART","display":"Participation"}]}],"individual":{"reference":"Practitioner/14","display":"Charles Everly"}}],"period":{"start":"2017-11-07T09:17:00+00:00"},"location":[{"location":{"reference":"Location/303","display":"CVPH Hospital"}}]}},{"resource":{"resourceType":"Location","id":"303","meta":{"profile":["http://hl7.org/fhir/StructureDefinition/daf-location"]},"identifier":[{"use":"official","system":"urn:oid:1.3.6.1.4.1.39322.99.2.1.3.7.1","value":"CVPH"}],"name":"CVPH Hospital"}},{"resource":{"resourceType":"Encounter","id":"304","meta":{"profile":["http://hl7.org/fhir/StructureDefinition/daf-encounter"]},"identifier":[{"use":"official","system":"urn:oid:2.16.840.1.113883.4.319.3197.7913","value":"X000013599","assigner":{"display":"HCP-EncounterId"}}],"status":"finished","type":[{"coding":[{"system":"http://www.ama-assn.org/go/cpt","code":"EMER","display":"Emergency"}],"text":"Emergency"}],"subject":{"reference":"Patient/2","display":"Madigan Test, Test Madigan, MADIGAN TEST, Madigan TEST"},"participant":[{"type":[{"coding":[{"system":"http://hl7.org/fhir/v3/ParticipationType","code":"PART","display":"Participation"}]}],"individual":{"reference":"Practitioner/32","display":"Timothy A Brooks"}}],"period":{"start":"2014-07-02T15:17:00+00:00"},"location":[{"location":{"reference":"Location/305","display":"Malta Medical Emergent Care"}}]}},{"resource":{"resourceType":"Location","id":"305","meta":{"profile":["http://hl7.org/fhir/StructureDefinition/daf-location"]},"identifier":[{"use":"official","system":"urn:oid:2.16.840.1.113883.4.319.3197.7913","value":"HCP"}],"name":"Malta Medical Emergent Care"}},{"resource":{"resourceType":"Condition","id":"306","meta":{"profile":["http://hl7.org/fhir/StructureDefinition/daf-condition"]},"clinicalStatus":"active","verificationStatus":"confirmed","category":[{"coding":[{"system":"http://hl7.org/fhir/condition-category","code":"problem-list-item","display":"Problem List Item"}]}],"code":{"coding":[{"system":"http://snomed.info/sct","code":"55561003","display":"Active"}],"text":"Active"},"subject":{"reference":"Patient/2","display":"Madigan Test, Test Madigan, MADIGAN TEST, Madigan TEST"}}},{"resource":{"resourceType":"Condition","id":"307","meta":{"profile":["http://hl7.org/fhir/StructureDefinition/daf-condition"]},"clinicalStatus":"active","verificationStatus":"confirmed","category":[{"coding":[{"system":"http://hl7.org/fhir/condition-category","code":"problem-list-item","display":"Problem List Item"}]}],"code":{"coding":[{"system":"http://snomed.info/sct","code":"216076008","display":"Balloon fire injuring occupant"}],"text":"Balloon fire injuring occupant"},"subject":{"reference":"Patient/2","display":"Madigan Test, Test Madigan, MADIGAN TEST, Madigan TEST"}}},{"resource":{"resourceType":"DocumentReference","id":"309","status":"current","type":{"coding":[{"system":"2.16.840.1.113883.6.1","code":"34133-9","display":"Summarization of Episode Note"}]},"indexed":"2020-02-10T17:13:49.145+00:00","content":[{"attachment":{"contentType":"text/plain","data":"","hash":"QlsE9zzAWR++A7YHeH4DMncbpWQ="}}]}},{"resource":{"resourceType":"Device","id":"310","text":{"status":"generated","div":"<div xmlns=\"http://www.w3.org/1999/xhtml\">Data Processing Engine</div>"},"identifier":[{"value":"Data Processing Engine"}],"status":"active"}},{"resource":{"resourceType":"Provenance","id":"308","target":[{"reference":"Composition/1","display":"Summarization of Episode Note"},{"reference":"Patient/2","display":"Madigan Test, Test Madigan, MADIGAN TEST, Madigan TEST"},{"reference":"Organization/4","display":"Hixny"},{"reference":"Device/3","display":"InterSystems"},{"reference":"Practitioner/5","display":"HealthShare Healthcare Information Xchange of NY"},{"reference":"Practitioner/8","display":"Susan Muller"},{"reference":"Practitioner/10","display":"LEO GRAFSTEIN"},{"reference":"Practitioner/12","display":"DOCTOR MEDITECH"},{"reference":"Practitioner/14","display":"Charles Everly"},{"reference":"Practitioner/16","display":"WILLIAM CARAMORE"},{"reference":"Practitioner/18","display":"DOCTOR MEDITECH"},{"reference":"Practitioner/20","display":"Timothy A Brooks"},{"reference":"Practitioner/22","display":"SIP CPOE"},{"reference":"Practitioner/24","display":"CPOE SIP TEST PROVIDER"},{"reference":"Practitioner/26","display":"Heather Madigan DO"},{"reference":"Practitioner/28","display":"DOCTOR MEDITECH"},{"reference":"Practitioner/30","display":"WILLIAM CARAMORE"},{"reference":"Practitioner/32","display":"Timothy A Brooks"},{"reference":"Practitioner/34","display":"CPOE SIP TEST PROVIDER"},{"reference":"Practitioner/36","display":"Heather Madigan DO"},{"reference":"Practitioner/38","display":"Heather Madigan DO"},{"reference":"MedicationStatement/41","display":"HumaLOG 1unit/0.01mL {BKC}"},{"reference":"Medication/42","display":"HumaLOG 1unit/0.01mL {BKC}"},{"reference":"MedicationRequest/43","display":"HumaLOG 1unit/0.01mL {BKC}"},{"reference":"Medication/44","display":"HumaLOG 1unit/0.01mL {BKC}"},{"reference":"Practitioner/45","display":"Heather Madigan"},{"reference":"MedicationDispense/48","display":"HumaLOG 1unit/0.01mL {BKC}"},{"reference":"Medication/49","display":"HumaLOG 1unit/0.01mL {BKC}"},{"reference":"MedicationStatement/50","display":"Zithromax"},{"reference":"Medication/51","display":"Zithromax"},{"reference":"MedicationRequest/52","display":"Zithromax"},{"reference":"Medication/53","display":"Zithromax"},{"reference":"MedicationDispense/54","display":"Zithromax"},{"reference":"Medication/55","display":"Zithromax"},{"reference":"MedicationStatement/56","display":"Lopressor"},{"reference":"Medication/57","display":"Lopressor"},{"reference":"MedicationRequest/58","display":"Lopressor"},{"reference":"Medication/59","display":"Lopressor"},{"reference":"MedicationDispense/60","display":"Lopressor"},{"reference":"Medication/61","display":"Lopressor"},{"reference":"MedicationStatement/62","display":"Protonix"},{"reference":"Medication/63","display":"Protonix"},{"reference":"MedicationRequest/64","display":"Protonix"},{"reference":"Medication/65","display":"Protonix"},{"reference":"MedicationDispense/66","display":"Protonix"},{"reference":"Medication/67","display":"Protonix"},{"reference":"MedicationStatement/68","display":"Morphine L.l Syringe"},{"reference":"Medication/69","display":"Morphine L.l Syringe"},{"reference":"MedicationRequest/70","display":"Morphine L.l Syringe"},{"reference":"Medication/71","display":"Morphine L.l Syringe"},{"reference":"MedicationDispense/72","display":"Morphine L.l Syringe"},{"reference":"Medication/73","display":"Morphine L.l Syringe"},{"reference":"MedicationStatement/74","display":"Fluzone Pediatric Pf 2013-2014"},{"reference":"Medication/75","display":"Fluzone Pediatric Pf 2013-2014"},{"reference":"MedicationRequest/76","display":"Fluzone Pediatric Pf 2013-2014"},{"reference":"Medication/77","display":"Fluzone Pediatric Pf 2013-2014"},{"reference":"MedicationDispense/78","display":"Fluzone Pediatric Pf 2013-2014"},{"reference":"Medication/79","display":"Fluzone Pediatric Pf 2013-2014"},{"reference":"MedicationStatement/80","display":"Lipitor(Atorvastatin Calcium) 40 MG TABLET Total Dose: 40 MG"},{"reference":"Medication/81","display":"Lipitor(Atorvastatin Calcium) 40 MG TABLET Total Dose: 40 MG"},{"reference":"MedicationRequest/82","display":"Lipitor(Atorvastatin Calcium) 40 MG TABLET Total Dose: 40 MG"},{"reference":"MedicationStatement/84","display":"Ventolin-HFA"},{"reference":"Medication/85","display":"Ventolin-HFA"},{"reference":"MedicationRequest/86","display":"Ventolin-HFA"},{"reference":"Medication/87","display":"Ventolin-HFA"},{"reference":"MedicationDispense/88","display":"Ventolin-HFA"},{"reference":"Medication/89","display":"Ventolin-HFA"},{"reference":"MedicationStatement/90","display":"Lasix(FUROSEMIDE) 20 MG TABLET Total Dose: 10 MG"},{"reference":"Medication/91","display":"Lasix(FUROSEMIDE) 20 MG TABLET Total Dose: 10 MG"},{"reference":"MedicationRequest/92","display":"Lasix(FUROSEMIDE) 20 MG TABLET Total Dose: 10 MG"},{"reference":"MedicationStatement/94","display":"NORCO 5-325 MG(Hydrocodone/Acetaminophen) 1 TAB TABLET Total Dose: 1 TAB"},{"reference":"Medication/95","display":"NORCO 5-325 MG(Hydrocodone/Acetaminophen) 1 TAB TABLET Total Dose: 1 TAB"},{"reference":"MedicationRequest/96","display":"NORCO 5-325 MG(Hydrocodone/Acetaminophen) 1 TAB TABLET Total Dose: 1 TAB"},{"reference":"MedicationStatement/98","display":"Lipitor(Atorvastatin Calcium) 40 MG TABLET Total Dose: 40 MG"},{"reference":"MedicationRequest/100","display":"Lipitor(Atorvastatin Calcium) 40 MG TABLET Total Dose: 40 MG"},{"reference":"MedicationStatement/102","display":"ZESTRIL/PRINIVIL"},{"reference":"Medication/103","display":"ZESTRIL/PRINIVIL"},{"reference":"MedicationRequest/104","display":"ZESTRIL/PRINIVIL"},{"reference":"Medication/105","display":"ZESTRIL/PRINIVIL"},{"reference":"MedicationDispense/106","display":"ZESTRIL/PRINIVIL"},{"reference":"Medication/107","display":"ZESTRIL/PRINIVIL"},{"reference":"MedicationStatement/108","display":"Lovenox"},{"reference":"Medication/109","display":"Lovenox"},{"reference":"MedicationRequest/110","display":"Lovenox"},{"reference":"Medication/111","display":"Lovenox"},{"reference":"MedicationDispense/112","display":"Lovenox"},{"reference":"Medication/113","display":"Lovenox"},{"reference":"MedicationStatement/114","display":"Lovenox 40MG SYRINGE"},{"reference":"Medication/115","display":"Lovenox 40MG SYRINGE"},{"reference":"MedicationRequest/116","display":"Lovenox 40MG SYRINGE"},{"reference":"Medication/117","display":"Lovenox 40MG SYRINGE"},{"reference":"MedicationDispense/118","display":"Lovenox 40MG SYRINGE"},{"reference":"Medication/119","display":"Lovenox 40MG SYRINGE"},{"reference":"MedicationStatement/120","display":"Duonebs"},{"reference":"Medication/121","display":"Duonebs"},{"reference":"MedicationRequest/122","display":"Duonebs"},{"reference":"Medication/123","display":"Duonebs"},{"reference":"MedicationDispense/124","display":"Duonebs"},{"reference":"Medication/125","display":"Duonebs"},{"reference":"MedicationStatement/126","display":"COLACE"},{"reference":"Medication/127","display":"COLACE"},{"reference":"MedicationRequest/128","display":"COLACE"},{"reference":"Medication/129","display":"COLACE"},{"reference":"MedicationDispense/130","display":"COLACE"},{"reference":"Medication/131","display":"COLACE"},{"reference":"MedicationStatement/132","display":"Lisinopril 5MG Tab(LISINOPRIL) 5 MG TABLET Total Dose: 5 MG"},{"reference":"Medication/133","display":"Lisinopril 5MG Tab(LISINOPRIL) 5 MG TABLET Total Dose: 5 MG"},{"reference":"MedicationRequest/134","display":"Lisinopril 5MG Tab(LISINOPRIL) 5 MG TABLET Total Dose: 5 MG"},{"reference":"MedicationStatement/136","display":"Prednisone/Deltasone"},{"reference":"Medication/137","display":"Prednisone/Deltasone"},{"reference":"MedicationRequest/138","display":"Prednisone/Deltasone"},{"reference":"Medication/139","display":"Prednisone/Deltasone"},{"reference":"MedicationDispense/140","display":"Prednisone/Deltasone"},{"reference":"Medication/141","display":"Prednisone/Deltasone"},{"reference":"MedicationStatement/142","display":"Lipitor"},{"reference":"Medication/143","display":"Lipitor"},{"reference":"MedicationRequest/144","display":"Lipitor"},{"reference":"Medication/145","display":"Lipitor"},{"reference":"MedicationDispense/146","display":"Lipitor"},{"reference":"Medication/147","display":"Lipitor"},{"reference":"MedicationStatement/148","display":"Non-Formulary Medication"},{"reference":"Medication/149","display":"Non-Formulary Medication"},{"reference":"MedicationRequest/150","display":"Non-Formulary Medication"},{"reference":"Medication/151","display":"Non-Formulary Medication"},{"reference":"MedicationDispense/152","display":"Non-Formulary Medication"},{"reference":"Medication/153","display":"Non-Formulary Medication"},{"reference":"MedicationStatement/154","display":"Nexium Delayed-Release Capsules(Esomeprazole Magnesium Trihydr) 40 MG CAPSULE Total Dose: 40 MG"},{"reference":"Medication/155","display":"Nexium Delayed-Release Capsules(Esomeprazole Magnesium Trihydr) 40 MG CAPSULE Total Dose: 40 MG"},{"reference":"MedicationRequest/156","display":"Nexium Delayed-Release Capsules(Esomeprazole Magnesium Trihydr) 40 MG CAPSULE Total Dose: 40 MG"},{"reference":"MedicationStatement/158","display":"Albuterol 0.5%"},{"reference":"Medication/159","display":"Albuterol 0.5%"},{"reference":"MedicationRequest/160","display":"Albuterol 0.5%"},{"reference":"Medication/161","display":"Albuterol 0.5%"},{"reference":"MedicationDispense/162","display":"Albuterol 0.5%"},{"reference":"Medication/163","display":"Albuterol 0.5%"},{"reference":"MedicationStatement/164","display":"Medication not documented"},{"reference":"Practitioner/165","display":"TERRY VANDELINDER"},{"reference":"PractitionerRole/166"},{"reference":"Organization/167","display":"Albany Med Center Faculty Practices"},{"reference":"Medication/168","display":"Medication not documented"},{"reference":"MedicationRequest/169","display":"Medication not documented"},{"reference":"Medication/170","display":"Medication not documented"},{"reference":"MedicationStatement/171","display":"MAALOX 30ml UD-CUP/RULOX"},{"reference":"Medication/172","display":"MAALOX 30ml UD-CUP/RULOX"},{"reference":"MedicationRequest/173","display":"MAALOX 30ml UD-CUP/RULOX"},{"reference":"Medication/174","display":"MAALOX 30ml UD-CUP/RULOX"},{"reference":"MedicationDispense/175","display":"MAALOX 30ml UD-CUP/RULOX"},{"reference":"Medication/176","display":"MAALOX 30ml UD-CUP/RULOX"},{"reference":"MedicationStatement/177","display":"Zithromax"},{"reference":"Medication/178","display":"Zithromax"},{"reference":"MedicationRequest/179","display":"Zithromax"},{"reference":"Medication/180","display":"Zithromax"},{"reference":"MedicationDispense/181","display":"Zithromax"},{"reference":"Medication/182","display":"Zithromax"},{"reference":"MedicationStatement/183","display":"Zofran Odt"},{"reference":"Medication/184","display":"Zofran Odt"},{"reference":"MedicationRequest/185","display":"Zofran Odt"},{"reference":"Medication/186","display":"Zofran Odt"},{"reference":"MedicationDispense/187","display":"Zofran Odt"},{"reference":"Medication/188","display":"Zofran Odt"},{"reference":"MedicationStatement/189","display":"Furosemide(FUROSEMIDE) 20 MG TABLET Total Dose: 10 MG"},{"reference":"Medication/190","display":"Furosemide(FUROSEMIDE) 20 MG TABLET Total Dose: 10 MG"},{"reference":"MedicationRequest/191","display":"Furosemide(FUROSEMIDE) 20 MG TABLET Total Dose: 10 MG"},{"reference":"MedicationStatement/193","display":"Lisinopril 5MG Tab(LISINOPRIL) 5 MG TABLET Total Dose: 5 MG"},{"reference":"MedicationRequest/195","display":"Lisinopril 5MG Tab(LISINOPRIL) 5 MG TABLET Total Dose: 5 MG"},{"reference":"MedicationStatement/197","display":"Milk Of Magnesia 30 Ml Udc"},{"reference":"Medication/198","display":"Milk Of Magnesia 30 Ml Udc"},{"reference":"MedicationRequest/199","display":"Milk Of Magnesia 30 Ml Udc"},{"reference":"Medication/200","display":"Milk Of Magnesia 30 Ml Udc"},{"reference":"MedicationDispense/201","display":"Milk Of Magnesia 30 Ml Udc"},{"reference":"Medication/202","display":"Milk Of Magnesia 30 Ml Udc"},{"reference":"MedicationStatement/203","display":"COLACE"},{"reference":"Medication/204","display":"COLACE"},{"reference":"MedicationRequest/205","display":"COLACE"},{"reference":"Medication/206","display":"COLACE"},{"reference":"MedicationDispense/207","display":"COLACE"},{"reference":"Medication/208","display":"COLACE"},{"reference":"MedicationStatement/209","display":"Azilect(Rasagiline Mesylate) 1 MG TABLET Total Dose: 1 MG"},{"reference":"Medication/210","display":"Azilect(Rasagiline Mesylate) 1 MG TABLET Total Dose: 1 MG"},{"reference":"MedicationRequest/211","display":"Azilect(Rasagiline Mesylate) 1 MG TABLET Total Dose: 1 MG"},{"reference":"MedicationStatement/213","display":"Lasix"},{"reference":"Medication/214","display":"Lasix"},{"reference":"MedicationRequest/215","display":"Lasix"},{"reference":"Medication/216","display":"Lasix"},{"reference":"MedicationDispense/217","display":"Lasix"},{"reference":"Medication/218","display":"Lasix"},{"reference":"Observation/219","display":"Height"},{"reference":"Observation/220","display":"Height"},{"reference":"Observation/221","display":"Weight"},{"reference":"Observation/222","display":"Weight"},{"reference":"Observation/223","display":"Weight"},{"reference":"Observation/224","display":"Weight"},{"reference":"Observation/225","display":"Height"},{"reference":"Observation/226","display":"Height"},{"reference":"Observation/227","display":"Weight"},{"reference":"Observation/228","display":"Height"},{"reference":"Observation/229","display":"Height"},{"reference":"Observation/230","display":"Weight"},{"reference":"Observation/231","display":"ED.VSIRES Respirations:"},{"reference":"Observation/232","display":"ED.HEIGHTI in"},{"reference":"Observation/233","display":"ED.VSITEMP Temperature:"},{"reference":"Observation/234","display":"BP.DIASTOLIC Diastolic Blood Pressure"},{"reference":"Observation/235","display":"BP.SYSTOLIC Systolic Blood Pressure"},{"reference":"Observation/236","display":"ED.WEIGHTL lbs"},{"reference":"Observation/237","display":"ED.VSIP Pulse:"},{"reference":"Observation/238","display":"ED.VSPO2 SpO2:"},{"reference":"Observation/239","display":"Height"},{"reference":"Observation/240","display":"Weight"},{"reference":"AllergyIntolerance/241","display":"Penicillins"},{"reference":"AllergyIntolerance/242","display":"Penicillins"},{"reference":"Procedure/243","display":"No Procedures"},{"reference":"DiagnosticReport/244","display":"COMPREHENSIVE METABOLIC PANEL"},{"reference":"Observation/245","display":"Creatinine [Mass/volume] in Serum or Plasma"},{"reference":"Observation/246","display":"Potassium [Moles/volume] in Serum or Plasma"},{"reference":"Observation/247","display":"Alanine aminotransferase [Enzymatic activity/volume] in Serum or Plasma by With P-5'-P"},{"reference":"Observation/248","display":"Bilirubin.total [Mass/volume] in Serum or Plasma"},{"reference":"Observation/249","display":"Protein [Mass/volume] in Serum or Plasma"},{"reference":"Observation/250","display":"Albumin/Globulin [Mass Ratio] in 24 hour Urine"},{"reference":"Observation/251","display":"Aspartate aminotransferase [Enzymatic activity/volume] in Serum or Plasma by With P-5'-P"},{"reference":"Observation/252","display":"GLUCOSE"},{"reference":"Observation/253","display":"\"Carbon dioxide, total [Moles/volume] in Serum or Plasma\""},{"reference":"Observation/254","display":"Urea nitrogen/Creatinine [Mass Ratio] in Serum or Plasma"},{"reference":"Observation/255","display":"Albumin [Mass/volume] in Serum or Plasma by Bromocresol purple (BCP) dye binding method"},{"reference":"Observation/256","display":"Osmolality of Serum or Plasma by calculation"},{"reference":"Observation/257","display":"Sodium [Moles/volume] in Serum or Plasma"},{"reference":"Observation/258","display":"Glucose [Mass/volume] in Serum or Plasma"},{"reference":"Observation/259","display":"Chloride [Moles/volume] in Serum or Plasma"},{"reference":"Observation/260","display":"Calcium [Mass/volume] in Serum or Plasma"},{"reference":"Observation/261","display":"Glomerular filtration rate/1.73 sq M.predicted [Volume Rate/Area] in Serum or Plasma"},{"reference":"Observation/262","display":"Alkaline phosphatase [Enzymatic activity/volume] in Serum or Plasma"},{"reference":"DiagnosticReport/263","display":"GLUCOSE POINT OF CARE"},{"reference":"Observation/264","display":"Glucose [Mass/volume] in Capillary blood by Glucometer"},{"reference":"DiagnosticReport/265","display":"GLUCOSE POINT OF CARE"},{"reference":"Observation/266","display":"Glucose [Mass/volume] in Capillary blood by Glucometer"},{"reference":"DiagnosticReport/267","display":"No Result Data"},{"reference":"Observation/268","display":"No Result Data"},{"reference":"DiagnosticReport/269","display":"CREATININE"},{"reference":"Observation/270","display":"Creatinine [Mass/volume] in Serum or Plasma"},{"reference":"Observation/271","display":"Glomerular filtration rate/1.73 sq M.predicted [Volume Rate/Area] in Serum or Plasma"},{"reference":"DiagnosticReport/272","display":"GLUCOSE POINT OF CARE"},{"reference":"Observation/273","display":"Glucose [Mass/volume] in Capillary blood by Glucometer"},{"reference":"DiagnosticReport/274","display":"TROPONIN I"},{"reference":"Observation/275","display":"Troponin I.cardiac [Mass/volume] in Serum or Plasma"},{"reference":"Encounter/276","display":"Inpatient"},{"reference":"Location/277","display":"Saratoga Hospital"},{"reference":"Encounter/278","display":"IN"},{"reference":"Location/279","display":"Saratoga Hospital"},{"reference":"Encounter/280","display":"Outpatient"},{"reference":"Location/281","display":"CVPH Hospital"},{"reference":"Encounter/282","display":"Emergency"},{"reference":"Location/283","display":"Albany Medical Center"},{"reference":"Encounter/284","display":"Inpatient"},{"reference":"Location/285","display":"St. Marys Hospital Amsterdam"},{"reference":"Encounter/286","display":"Inpatient"},{"reference":"Location/287","display":"St. Marys Hospital Amsterdam"},{"reference":"Encounter/288","display":"Inpatient"},{"reference":"Location/289","display":"Saratoga Hospital"},{"reference":"Encounter/290","display":"Discharged Inpatient"},{"reference":"Practitioner/291","display":"DOCTOR MEDITECH"},{"reference":"Location/293","display":"St. Marys Hospital Amsterdam"},{"reference":"Encounter/294","display":"Outpatient"},{"reference":"Location/295","display":"CVPH Hospital"},{"reference":"Encounter/296","display":"Inpatient"},{"reference":"Location/297","display":"Albany Medical Center"},{"reference":"Encounter/298","display":"Non-Appointment; VANDELINDER,TERRY"},{"reference":"Location/299","display":"Albany Medical Center Faculty Practices"},{"reference":"Encounter/300","display":"Admitted Inpatient"},{"reference":"Location/301","display":"St. Marys Hospital Amsterdam"},{"reference":"Encounter/302","display":"Emergency"},{"reference":"Location/303","display":"CVPH Hospital"},{"reference":"Encounter/304","display":"Emergency"},{"reference":"Location/305","display":"Malta Medical Emergent Care"},{"reference":"Condition/306","display":"Active"},{"reference":"Condition/307","display":"Balloon fire injuring occupant"},{"reference":"DocumentReference/309","display":"Summarization of Episode Note"},{"reference":"Device/310"}],"recorded":"2020-02-10T17:13:49.145+00:00","agent":[{"role":[{"coding":[{"id":"Device/310","system":"http://hl7.org/fhir/provenance-participant-role","code":"assembler","display":"Assembler"}]}],"whoReference":{"reference":"Device/310"},"relatedAgentType":{"coding":[{"id":"Device/310","system":"http://hl7.org/fhir/provenance-participant-type","code":"device","display":"Device"}]}}],"entity":[{"role":"source","whatReference":{"reference":"DocumentReference/309","display":"Summarization of Episode Note"}}]}}]}